timestamp_IMU1,accel_X_IMU1,accel_Y_IMU1,accel_Z_IMU1,gyro_X_IMU1,gyro_Y_IMU1,gyro_Z_IMU1,mag_X_IMU1,mag_Y_IMU1,mag_Z_IMU1,timestamp_IMU2,accel_X_IMU2,accel_Y_IMU2,accel_Z_IMU2,gyro_X_IMU2,gyro_Y_IMU2,gyro_Z_IMU2,mag_X_IMU2,mag_Y_IMU2,mag_Z_IMU2
2800611,0,0,0,0,0,0,11533,0,0,2877611,0,0,0,0,0,0,-1025,0,0
3920611,0,0,0,0,0,0,481,0,0,3997611,0,0,0,0,0,0,562,0,0
5040611,0,0,0,0,0,0,479,0,0,5117611,0,0,0,0,0,0,610,0,0
6160611,0,0,0,0,0,0,481,0,0,6237611,0,0,0,0,0,0,552,0,0
7280611,0,0,0,0,0,0,449,0,0,7357611,0,0,0,0,0,0,582,0,0
8400611,0,0,0,0,0,0,462,0,0,8477611,0,0,0,0,0,0,520,0,0
9520611,0,0,0,0,0,0,507,0,0,9597611,0,0,0,0,0,0,556,0,0
10640611,0,0,0,0,0,0,458,0,0,10717611,0,0,0,0,0,0,587,0,0
11760611,0,0,0,0,0,0,508,0,0,11837611,0,0,0,0,0,0,581,0,0
12880611,0,0,0,0,0,0,447,0,0,12957611,0,0,0,0,0,0,602,0,0
14000611,0,0,0,0,0,0,475,0,0,14077611,0,0,0,0,0,0,584,0,0
15120611,0,0,0,0,0,0,473,0,0,15197611,0,0,0,0,0,0,545,0,0
16240611,0,0,0,0,0,0,492,0,0,16317611,0,0,0,0,0,0,588,0,0
17360611,0,0,0,0,0,0,470,0,0,17437611,0,0,0,0,0,0,602,0,0
18480611,0,0,0,0,0,0,408,0,0,18557611,0,0,0,0,0,0,575,0,0
19600611,0,0,0,0,0,0,475,0,0,19677611,0,0,0,0,0,0,539,0,0
20720611,0,0,0,0,0,0,476,0,0,20797611,0,0,0,0,0,0,573,0,0
21840611,0,0,0,0,0,0,469,0,0,21917611,0,0,0,0,0,0,613,0,0
22960611,0,0,0,0,0,0,485,0,0,23037611,0,0,0,0,0,0,582,0,0
24080611,0,0,0,0,0,0,501,0,0,24157611,0,0,0,0,0,0,563,0,0
25200611,0,0,0,0,0,0,514,0,0,25277611,0,0,0,0,0,0,590,0,0
26320611,0,0,0,0,0,0,443,0,0,26397611,0,0,0,0,0,0,585,0,0
27440611,0,0,0,0,0,0,501,0,0,27517611,0,0,0,0,0,0,610,0,0
28560611,0,0,0,0,0,0,422,0,0,28637611,0,0,0,0,0,0,575,0,0
29680611,0,0,0,0,0,0,509,0,0,29757611,0,0,0,0,0,0,609,0,0
30800611,0,0,0,0,0,0,489,0,0,30877611,0,0,0,0,0,0,590,0,0
31920611,0,0,0,0,0,0,469,0,0,31997611,0,0,0,0,0,0,572,0,0
33040611,0,0,0,0,0,0,442,0,0,33117611,0,0,0,0,0,0,583,0,0
34160611,0,0,0,0,0,0,510,0,0,34237611,0,0,0,0,0,0,600,0,0
35280611,0,0,0,0,0,0,478,0,0,35357611,0,0,0,0,0,0,585,0,0
36400611,0,0,0,0,0,0,443,0,0,36477611,0,0,0,0,0,0,583,0,0
37520611,0,0,0,0,0,0,488,0,0,37597611,0,0,0,0,0,0,568,0,0
38640611,0,0,0,0,0,0,460,0,0,38717611,0,0,0,0,0,0,605,0,0
39760611,0,0,0,0,0,0,469,0,0,39837611,0,0,0,0,0,0,593,0,0
40880611,0,0,0,0,0,0,474,0,0,40957611,0,0,0,0,0,0,570,0,0
42000611,0,0,0,0,0,0,487,0,0,42077611,0,0,0,0,0,0,570,0,0
43120611,0,0,0,0,0,0,434,0,0,43197611,0,0,0,0,0,0,549,0,0
44240611,0,0,0,0,0,0,465,0,0,44317611,0,0,0,0,0,0,568,0,0
45360611,0,0,0,0,0,0,498,0,0,45437611,0,0,0,0,0,0,556,0,0
46480611,0,0,0,0,0,0,456,0,0,46557611,0,0,0,0,0,0,567,0,0
47600611,0,0,0,0,0,0,448,0,0,47677611,0,0,0,0,0,0,522,0,0
48720611,0,0,0,0,0,0,440,0,0,48797611,0,0,0,0,0,0,563,0,0
49840611,0,0,0,0,0,0,523,0,0,49917611,0,0,0,0,0,0,570,0,0
50960611,0,0,0,0,0,0,478,0,0,51037611,0,0,0,0,0,0,554,0,0
52080611,0,0,0,0,0,0,449,0,0,52157611,0,0,0,0,0,0,607,0,0
53200611,0,0,0,0,0,0,508,0,0,53277611,0,0,0,0,0,0,534,0,0
54320611,0,0,0,0,0,0,506,0,0,54397611,0,0,0,0,0,0,625,0,0
55440611,0,0,0,0,0,0,464,0,0,55517611,0,0,0,0,0,0,574,0,0
56560611,0,0,0,0,0,0,472,0,0,56637611,0,0,0,0,0,0,570,0,0
57680611,0,0,0,0,0,0,473,0,0,57757611,0,0,0,0,0,0,587,0,0
58800611,0,0,0,0,0,0,5852,0,0,58877611,0,0,0,0,0,0,-877,0,0
59920611,0,0,0,0,0,0,12150,0,0,59997611,0,0,0,0,0,0,-972,0,0
61040611,0,0,0,0,0,0,12214,0,0,61117611,0,0,0,0,0,0,-980,0,0
62160611,0,0,0,0,0,0,12136,0,0,62237611,0,0,0,0,0,0,-998,0,0
63280611,0,0,0,0,0,0,12170,0,0,63357611,0,0,0,0,0,0,-950,0,0
64400611,0,0,0,0,0,0,12155,0,0,64477611,0,0,0,0,0,0,-974,0,0
65520611,0,0,0,0,0,0,12141,0,0,65597611,0,0,0,0,0,0,-1006,0,0
66640611,0,0,0,0,0,0,12172,0,0,66717611,0,0,0,0,0,0,-971,0,0
67760611,0,0,0,0,0,0,5598,0,0,67837611,0,0,0,0,0,0,593,0,0
68880611,0,0,0,0,0,0,482,0,0,68957611,0,0,0,0,0,0,572,0,0
70000611,0,0,0,0,0,0,451,0,0,70077611,0,0,0,0,0,0,599,0,0
71120611,0,0,0,0,0,0,494,0,0,71197611,0,0,0,0,0,0,564,0,0
72240611,0,0,0,0,0,0,504,0,0,72317611,0,0,0,0,0,0,590,0,0
73360611,0,0,0,0,0,0,465,0,0,73437611,0,0,0,0,0,0,611,0,0
74480611,0,0,0,0,0,0,454,0,0,74557611,0,0,0,0,0,0,585,0,0
75600611,0,0,0,0,0,0,422,0,0,75677611,0,0,0,0,0,0,627,0,0
76720611,0,0,0,0,0,0,2978,0,0,76797611,0,0,0,0,0,0,-812,0,0
77840611,0,0,0,0,0,0,12156,0,0,77917611,0,0,0,0,0,0,-952,0,0
78960611,0,0,0,0,0,0,12157,0,0,79037611,0,0,0,0,0,0,-995,0,0
80080611,0,0,0,0,0,0,12142,0,0,80157611,0,0,0,0,0,0,-1032,0,0
81200611,0,0,0,0,0,0,12180,0,0,81277611,0,0,0,0,0,0,-979,0,0
82320611,0,0,0,0,0,0,12201,0,0,82397611,0,0,0,0,0,0,-994,0,0
83440611,0,0,0,0,0,0,12129,0,0,83517611,0,0,0,0,0,0,-971,0,0
84560611,0,0,0,0,0,0,12122,0,0,84637611,0,0,0,0,0,0,-996,0,0
85680611,0,0,0,0,0,0,12140,0,0,85757611,0,0,0,0,0,0,488,0,0
86800611,0,0,0,0,0,0,455,0,0,86877611,0,0,0,0,0,0,557,0,0
87920611,0,0,0,0,0,0,487,0,0,87997611,0,0,0,0,0,0,610,0,0
89040611,0,0,0,0,0,0,485,0,0,89117611,0,0,0,0,0,0,566,0,0
90160611,0,0,0,0,0,0,471,0,0,90237611,0,0,0,0,0,0,555,0,0
91280611,0,0,0,0,0,0,475,0,0,91357611,0,0,0,0,0,0,585,0,0
92400611,0,0,0,0,0,0,458,0,0,92477611,0,0,0,0,0,0,581,0,0
93520611,0,0,0,0,0,0,463,0,0,93597611,0,0,0,0,0,0,601,0,0
94640611,0,0,0,0,0,0,429,0,0,94717611,0,0,0,0,0,0,-585,0,0
95760611,0,0,0,0,0,0,12151,0,0,95837611,0,0,0,0,0,0,-1012,0,0
96880611,0,0,0,0,0,0,12204,0,0,96957611,0,0,0,0,0,0,-943,0,0
98000611,0,0,0,0,0,0,12148,0,0,98077611,0,0,0,0,0,0,-966,0,0
99120611,0,0,0,0,0,0,12150,0,0,99197611,0,0,0,0,0,0,-990,0,0
100240611,0,0,0,0,0,0,12163,0,0,100317611,0,0,0,0,0,0,-971,0,0
101360611,0,0,0,0,0,0,12107,0,0,101437611,0,0,0,0,0,0,-1002,0,0
102480611,0,0,0,0,0,0,12154,0,0,102557611,0,0,0,0,0,0,-918,0,0
103600611,0,0,0,0,0,0,12166,0,0,103677611,0,0,0,0,0,0,236,0,0
104720611,0,0,0,0,0,0,455,0,0,104797611,0,0,0,0,0,0,573,0,0
105840611,0,0,0,0,0,0,485,0,0,105917611,0,0,0,0,0,0,568,0,0
106960611,0,0,0,0,0,0,447,0,0,107037611,0,0,0,0,0,0,594,0,0
108080611,0,0,0,0,0,0,494,0,0,108157611,0,0,0,0,0,0,596,0,0
109200611,0,0,0,0,0,0,457,0,0,109277611,0,0,0,0,0,0,565,0,0
110320611,0,0,0,0,0,0,458,0,0,110397611,0,0,0,0,0,0,581,0,0
111440611,0,0,0,0,0,0,483,0,0,111517611,0,0,0,0,0,0,569,0,0
112560611,0,0,0,0,0,0,467,0,0,112637611,0,0,0,0,0,0,-205,0,0
113680611,0,0,0,0,0,0,12157,0,0,113757611,0,0,0,0,0,0,-1018,0,0
114800611,0,0,0,0,0,0,12179,0,0,114877611,0,0,0,0,0,0,-982,0,0
115920611,0,0,0,0,0,0,12144,0,0,115997611,0,0,0,0,0,0,-987,0,0
117040611,0,0,0,0,0,0,12156,0,0,117117611,0,0,0,0,0,0,-947,0,0
118160611,0,0,0,0,0,0,12150,0,0,118237611,0,0,0,0,0,0,-1010,0,0
119280611,0,0,0,0,0,0,12137,0,0,119357611,0,0,0,0,0,0,-1042,0,0
120400611,0,0,0,0,0,0,12169,0,0,120477611,0,0,0,0,0,0,-1009,0,0
121520611,0,0,0,0,0,0,12135,0,0,121597611,0,0,0,0,0,0,-512,0,0
122640611,0,0,0,0,0,0,502,0,0,122717611,0,0,0,0,0,0,533,0,0
123760611,0,0,0,0,0,0,502,0,0,123837611,0,0,0,0,0,0,590,0,0
124880611,0,0,0,0,0,0,505,0,0,124957611,0,0,0,0,0,0,566,0,0
126000611,0,0,0,0,0,0,465,0,0,126077611,0,0,0,0,0,0,588,0,0
127120611,0,0,0,0,0,0,495,0,0,127197611,0,0,0,0,0,0,608,0,0
128240611,0,0,0,0,0,0,460,0,0,128317611,0,0,0,0,0,0,562,0,0
129360611,0,0,0,0,0,0,491,0,0,129437611,0,0,0,0,0,0,577,0,0
130480611,0,0,0,0,0,0,486,0,0,130557611,0,0,0,0,0,0,616,0,0
131600611,0,0,0,0,0,0,12151,0,0,131677611,0,0,0,0,0,0,-984,0,0
132720611,0,0,0,0,0,0,12147,0,0,132797611,0,0,0,0,0,0,-969,0,0
133840611,0,0,0,0,0,0,12153,0,0,133917611,0,0,0,0,0,0,-995,0,0
134960611,0,0,0,0,0,0,12132,0,0,135037611,0,0,0,0,0,0,-1000,0,0
136080611,0,0,0,0,0,0,12107,0,0,136157611,0,0,0,0,0,0,-954,0,0
137200611,0,0,0,0,0,0,12130,0,0,137277611,0,0,0,0,0,0,-978,0,0
138320611,0,0,0,0,0,0,12133,0,0,138397611,0,0,0,0,0,0,-1021,0,0
139440611,0,0,0,0,0,0,12100,0,0,139517611,0,0,0,0,0,0,-938,0,0
140560611,0,0,0,0,0,0,460,0,0,140637611,0,0,0,0,0,0,585,0,0
141680611,0,0,0,0,0,0,503,0,0,141757611,0,0,0,0,0,0,562,0,0
142800611,0,0,0,0,0,0,484,0,0,142877611,0,0,0,0,0,0,581,0,0
143920611,0,0,0,0,0,0,482,0,0,143997611,0,0,0,0,0,0,523,0,0
145040611,0,0,0,0,0,0,467,0,0,145117611,0,0,0,0,0,0,555,0,0
146160611,0,0,0,0,0,0,502,0,0,146237611,0,0,0,0,0,0,572,0,0
147280611,0,0,0,0,0,0,480,0,0,147357611,0,0,0,0,0,0,576,0,0
148400611,0,0,0,0,0,0,469,0,0,148477611,0,0,0,0,0,0,567,0,0
149520611,0,0,0,0,0,0,12117,0,0,149597611,0,0,0,0,0,0,-974,0,0
150640611,0,0,0,0,0,0,12162,0,0,150717611,0,0,0,0,0,0,-1002,0,0
151760611,0,0,0,0,0,0,12159,0,0,151837611,0,0,0,0,0,0,-993,0,0
152880611,0,0,0,0,0,0,12187,0,0,152957611,0,0,0,0,0,0,-967,0,0
154000611,0,0,0,0,0,0,12129,0,0,154077611,0,0,0,0,0,0,-945,0,0
155120611,0,0,0,0,0,0,12154,0,0,155197611,0,0,0,0,0,0,-993,0,0
156240611,0,0,0,0,0,0,12163,0,0,156317611,0,0,0,0,0,0,-976,0,0
157360611,0,0,0,0,0,0,12144,0,0,157437611,0,0,0,0,0,0,-973,0,0
158480611,0,0,0,0,0,0,416,0,0,158557611,0,0,0,0,0,0,590,0,0
159600611,0,0,0,0,0,0,463,0,0,159677611,0,0,0,0,0,0,584,0,0
160720611,0,0,0,0,0,0,510,0,0,160797611,0,0,0,0,0,0,603,0,0
161840611,0,0,0,0,0,0,485,0,0,161917611,0,0,0,0,0,0,607,0,0
162960611,0,0,0,0,0,0,472,0,0,163037611,0,0,0,0,0,0,565,0,0
164080611,0,0,0,0,0,0,443,0,0,164157611,0,0,0,0,0,0,607,0,0
165200611,0,0,0,0,0,0,530,0,0,165277611,0,0,0,0,0,0,565,0,0
166320611,0,0,0,0,0,0,489,0,0,166397611,0,0,0,0,0,0,537,0,0
167440611,0,0,0,0,0,0,12135,0,0,167517611,0,0,0,0,0,0,-1005,0,0
168560611,0,0,0,0,0,0,12114,0,0,168637611,0,0,0,0,0,0,-1022,0,0
169680611,0,0,0,0,0,0,12106,0,0,169757611,0,0,0,0,0,0,-1004,0,0
170800611,0,0,0,0,0,0,12125,0,0,170877611,0,0,0,0,0,0,-979,0,0
171920611,0,0,0,0,0,0,12157,0,0,171997611,0,0,0,0,0,0,-940,0,0
173040611,0,0,0,0,0,0,12128,0,0,173117611,0,0,0,0,0,0,-984,0,0
174160611,0,0,0,0,0,0,12147,0,0,174237611,0,0,0,0,0,0,-997,0,0
175280611,0,0,0,0,0,0,12067,0,0,175357611,0,0,0,0,0,0,-983,0,0
176400611,0,0,0,0,0,0,432,0,0,176477611,0,0,0,0,0,0,544,0,0
177520611,0,0,0,0,0,0,469,0,0,177597611,0,0,0,0,0,0,600,0,0
178640611,0,0,0,0,0,0,468,0,0,178717611,0,0,0,0,0,0,572,0,0
179760611,0,0,0,0,0,0,486,0,0,179837611,0,0,0,0,0,0,572,0,0
180880611,0,0,0,0,0,0,468,0,0,180957611,0,0,0,0,0,0,571,0,0
182000611,0,0,0,0,0,0,491,0,0,182077611,0,0,0,0,0,0,549,0,0
183120611,0,0,0,0,0,0,504,0,0,183197611,0,0,0,0,0,0,565,0,0
184240611,0,0,0,0,0,0,472,0,0,184317611,0,0,0,0,0,0,606,0,0
185360611,0,0,0,0,0,0,12125,0,0,185437611,0,0,0,0,0,0,-929,0,0
186480611,0,0,0,0,0,0,12119,0,0,186557611,0,0,0,0,0,0,-983,0,0
187600611,0,0,0,0,0,0,12159,0,0,187677611,0,0,0,0,0,0,-1017,0,0
188720611,0,0,0,0,0,0,12160,0,0,188797611,0,0,0,0,0,0,-976,0,0
189840611,0,0,0,0,0,0,12133,0,0,189917611,0,0,0,0,0,0,-991,0,0
190960611,0,0,0,0,0,0,12119,0,0,191037611,0,0,0,0,0,0,-990,0,0
192080611,0,0,0,0,0,0,12113,0,0,192157611,0,0,0,0,0,0,-999,0,0
193200611,0,0,0,0,0,0,12104,0,0,193277611,0,0,0,0,0,0,-980,0,0
194320611,0,0,0,0,0,0,488,0,0,194397611,0,0,0,0,0,0,582,0,0
195440611,0,0,0,0,0,0,487,0,0,195517611,0,0,0,0,0,0,587,0,0
196560611,0,0,0,0,0,0,464,0,0,196637611,0,0,0,0,0,0,583,0,0
197680611,0,0,0,0,0,0,490,0,0,197757611,0,0,0,0,0,0,596,0,0
198800611,0,0,0,0,0,0,470,0,0,198877611,0,0,0,0,0,0,541,0,0
199920611,0,0,0,0,0,0,475,0,0,199997611,0,0,0,0,0,0,574,0,0
201040611,0,0,0,0,0,0,487,0,0,201117611,0,0,0,0,0,0,555,0,0
202160611,0,0,0,0,0,0,446,0,0,202237611,0,0,0,0,0,0,589,0,0
203280611,0,0,0,0,0,0,12100,0,0,203357611,0,0,0,0,0,0,-1026,0,0
204400611,0,0,0,0,0,0,12149,0,0,204477611,0,0,0,0,0,0,-998,0,0
205520611,0,0,0,0,0,0,12103,0,0,205597611,0,0,0,0,0,0,-968,0,0
206640611,0,0,0,0,0,0,12128,0,0,206717611,0,0,0,0,0,0,-973,0,0
207760611,0,0,0,0,0,0,12124,0,0,207837611,0,0,0,0,0,0,-972,0,0
208880611,0,0,0,0,0,0,12124,0,0,208957611,0,0,0,0,0,0,-993,0,0
210000611,0,0,0,0,0,0,12108,0,0,210077611,0,0,0,0,0,0,-947,0,0
211120611,0,0,0,0,0,0,12152,0,0,211197611,0,0,0,0,0,0,-1016,0,0
212240611,0,0,0,0,0,0,500,0,0,212317611,0,0,0,0,0,0,566,0,0
213360611,0,0,0,0,0,0,484,0,0,213437611,0,0,0,0,0,0,581,0,0
214480611,0,0,0,0,0,0,460,0,0,214557611,0,0,0,0,0,0,617,0,0
215600611,0,0,0,0,0,0,470,0,0,215677611,0,0,0,0,0,0,569,0,0
216720611,0,0,0,0,0,0,505,0,0,216797611,0,0,0,0,0,0,617,0,0
217840611,0,0,0,0,0,0,481,0,0,217917611,0,0,0,0,0,0,574,0,0
218960611,0,0,0,0,0,0,525,0,0,219037611,0,0,0,0,0,0,555,0,0
220080611,0,0,0,0,0,0,456,0,0,220157611,0,0,0,0,0,0,552,0,0
221200611,0,0,0,0,0,0,12145,0,0,221277611,0,0,0,0,0,0,-991,0,0
222320611,0,0,0,0,0,0,12106,0,0,222397611,0,0,0,0,0,0,-972,0,0
223440611,0,0,0,0,0,0,12137,0,0,223517611,0,0,0,0,0,0,-987,0,0
224560611,0,0,0,0,0,0,12165,0,0,224637611,0,0,0,0,0,0,-988,0,0
225680611,0,0,0,0,0,0,12135,0,0,225757611,0,0,0,0,0,0,-975,0,0
226800611,0,0,0,0,0,0,12080,0,0,226877611,0,0,0,0,0,0,-1001,0,0
227920611,0,0,0,0,0,0,12128,0,0,227997611,0,0,0,0,0,0,-978,0,0
229040611,0,0,0,0,0,0,12111,0,0,229117611,0,0,0,0,0,0,-964,0,0
230160611,0,0,0,0,0,0,515,0,0,230237611,0,0,0,0,0,0,580,0,0
231280611,0,0,0,0,0,0,460,0,0,231357611,0,0,0,0,0,0,552,0,0
232400611,0,0,0,0,0,0,482,0,0,232477611,0,0,0,0,0,0,632,0,0
233520611,0,0,0,0,0,0,484,0,0,233597611,0,0,0,0,0,0,615,0,0
234640611,0,0,0,0,0,0,454,0,0,234717611,0,0,0,0,0,0,585,0,0
235760611,0,0,0,0,0,0,457,0,0,235837611,0,0,0,0,0,0,589,0,0
236880611,0,0,0,0,0,0,462,0,0,236957611,0,0,0,0,0,0,579,0,0
238000611,0,0,0,0,0,0,485,0,0,238077611,0,0,0,0,0,0,601,0,0
239120611,0,0,0,0,0,0,12126,0,0,239197611,0,0,0,0,0,0,-919,0,0
240240611,0,0,0,0,0,0,12072,0,0,240317611,0,0,0,0,0,0,-972,0,0
241360611,0,0,0,0,0,0,12138,0,0,241437611,0,0,0,0,0,0,-997,0,0
242480611,0,0,0,0,0,0,12116,0,0,242557611,0,0,0,0,0,0,-971,0,0
243600611,0,0,0,0,0,0,12151,0,0,243677611,0,0,0,0,0,0,-993,0,0
244720611,0,0,0,0,0,0,12092,0,0,244797611,0,0,0,0,0,0,-953,0,0
245840611,0,0,0,0,0,0,12067,0,0,245917611,0,0,0,0,0,0,-973,0,0
246960611,0,0,0,0,0,0,12128,0,0,247037611,0,0,0,0,0,0,-943,0,0
248080611,0,0,0,0,0,0,475,0,0,248157611,0,0,0,0,0,0,553,0,0
249200611,0,0,0,0,0,0,493,0,0,249277611,0,0,0,0,0,0,556,0,0
250320611,0,0,0,0,0,0,517,0,0,250397611,0,0,0,0,0,0,579,0,0
251440611,0,0,0,0,0,0,443,0,0,251517611,0,0,0,0,0,0,571,0,0
252560611,0,0,0,0,0,0,470,0,0,252637611,0,0,0,0,0,0,549,0,0
253680611,0,0,0,0,0,0,516,0,0,253757611,0,0,0,0,0,0,570,0,0
254800611,0,0,0,0,0,0,476,0,0,254877611,0,0,0,0,0,0,584,0,0
255920611,0,0,0,0,0,0,452,0,0,255997611,0,0,0,0,0,0,567,0,0
257040611,0,0,0,0,0,0,12067,0,0,257117611,0,0,0,0,0,0,-982,0,0
258160611,0,0,0,0,0,0,12111,0,0,258237611,0,0,0,0,0,0,-985,0,0
259280611,0,0,0,0,0,0,12089,0,0,259357611,0,0,0,0,0,0,-988,0,0
260400611,0,0,0,0,0,0,12100,0,0,260477611,0,0,0,0,0,0,-979,0,0
261520611,0,0,0,0,0,0,12084,0,0,261597611,0,0,0,0,0,0,-987,0,0
262640611,0,0,0,0,0,0,12118,0,0,262717611,0,0,0,0,0,0,-973,0,0
263760611,0,0,0,0,0,0,12109,0,0,263837611,0,0,0,0,0,0,-996,0,0
264880611,0,0,0,0,0,0,12096,0,0,264957611,0,0,0,0,0,0,-929,0,0
266000611,0,0,0,0,0,0,462,0,0,266077611,0,0,0,0,0,0,570,0,0
267120611,0,0,0,0,0,0,476,0,0,267197611,0,0,0,0,0,0,581,0,0
268240611,0,0,0,0,0,0,484,0,0,268317611,0,0,0,0,0,0,567,0,0
269360611,0,0,0,0,0,0,477,0,0,269437611,0,0,0,0,0,0,591,0,0
270480611,0,0,0,0,0,0,480,0,0,270557611,0,0,0,0,0,0,561,0,0
271600611,0,0,0,0,0,0,435,0,0,271677611,0,0,0,0,0,0,555,0,0
272720611,0,0,0,0,0,0,479,0,0,272797611,0,0,0,0,0,0,535,0,0
273840611,0,0,0,0,0,0,497,0,0,273917611,0,0,0,0,0,0,601,0,0
274960611,0,0,0,0,0,0,12100,0,0,275037611,0,0,0,0,0,0,-955,0,0
276080611,0,0,0,0,0,0,12162,0,0,276157611,0,0,0,0,0,0,-981,0,0
277200611,0,0,0,0,0,0,12130,0,0,277277611,0,0,0,0,0,0,-996,0,0
278320611,0,0,0,0,0,0,12142,0,0,278397611,0,0,0,0,0,0,-978,0,0
279440611,0,0,0,0,0,0,12134,0,0,279517611,0,0,0,0,0,0,-969,0,0
280560611,0,0,0,0,0,0,12115,0,0,280637611,0,0,0,0,0,0,-970,0,0
281680611,0,0,0,0,0,0,12127,0,0,281757611,0,0,0,0,0,0,-986,0,0
282800611,0,0,0,0,0,0,12065,0,0,282877611,0,0,0,0,0,0,-979,0,0
283920611,0,0,0,0,0,0,445,0,0,283997611,0,0,0,0,0,0,534,0,0
285040611,0,0,0,0,0,0,443,0,0,285117611,0,0,0,0,0,0,548,0,0
286160611,0,0,0,0,0,0,479,0,0,286237611,0,0,0,0,0,0,573,0,0
287280611,0,0,0,0,0,0,481,0,0,287357611,0,0,0,0,0,0,557,0,0
288400611,0,0,0,0,0,0,491,0,0,288477611,0,0,0,0,0,0,534,0,0
289520611,0,0,0,0,0,0,487,0,0,289597611,0,0,0,0,0,0,583,0,0
290640611,0,0,0,0,0,0,500,0,0,290717611,0,0,0,0,0,0,588,0,0
291760611,0,0,0,0,0,0,416,0,0,291837611,0,0,0,0,0,0,578,0,0
292880611,0,0,0,0,0,0,12132,0,0,292957611,0,0,0,0,0,0,-970,0,0
294000611,0,0,0,0,0,0,12125,0,0,294077611,0,0,0,0,0,0,-1008,0,0
295120611,0,0,0,0,0,0,12044,0,0,295197611,0,0,0,0,0,0,-1004,0,0
296240611,0,0,0,0,0,0,12127,0,0,296317611,0,0,0,0,0,0,-977,0,0
297360611,0,0,0,0,0,0,12077,0,0,297437611,0,0,0,0,0,0,-1006,0,0
298480611,0,0,0,0,0,0,12079,0,0,298557611,0,0,0,0,0,0,-996,0,0
299600611,0,0,0,0,0,0,12051,0,0,299677611,0,0,0,0,0,0,-980,0,0
300720611,0,0,0,0,0,0,12186,0,0,300797611,0,0,0,0,0,0,-974,0,0
301840611,0,0,0,0,0,0,476,0,0,301917611,0,0,0,0,0,0,626,0,0
302960611,0,0,0,0,0,0,483,0,0,303037611,0,0,0,0,0,0,582,0,0
304080611,0,0,0,0,0,0,487,0,0,304157611,0,0,0,0,0,0,537,0,0
305200611,0,0,0,0,0,0,490,0,0,305277611,0,0,0,0,0,0,632,0,0
306320611,0,0,0,0,0,0,476,0,0,306397611,0,0,0,0,0,0,576,0,0
307440611,0,0,0,0,0,0,502,0,0,307517611,0,0,0,0,0,0,593,0,0
308560611,0,0,0,0,0,0,481,0,0,308637611,0,0,0,0,0,0,597,0,0
309680611,0,0,0,0,0,0,486,0,0,309757611,0,0,0,0,0,0,568,0,0
310800611,0,0,0,0,0,0,12111,0,0,310877611,0,0,0,0,0,0,-953,0,0
311920611,0,0,0,0,0,0,12086,0,0,311997611,0,0,0,0,0,0,-987,0,0
313040611,0,0,0,0,0,0,12118,0,0,313117611,0,0,0,0,0,0,-983,0,0
314160611,0,0,0,0,0,0,12075,0,0,314237611,0,0,0,0,0,0,-1021,0,0
315280611,0,0,0,0,0,0,12103,0,0,315357611,0,0,0,0,0,0,-995,0,0
316400611,0,0,0,0,0,0,12080,0,0,316477611,0,0,0,0,0,0,-984,0,0
317520611,0,0,0,0,0,0,12088,0,0,317597611,0,0,0,0,0,0,-970,0,0
318640611,0,0,0,0,0,0,12133,0,0,318717611,0,0,0,0,0,0,-957,0,0
319760611,0,0,0,0,0,0,460,0,0,319837611,0,0,0,0,0,0,644,0,0
320880611,0,0,0,0,0,0,535,0,0,320957611,0,0,0,0,0,0,601,0,0
322000611,0,0,0,0,0,0,464,0,0,322077611,0,0,0,0,0,0,634,0,0
323120611,0,0,0,0,0,0,472,0,0,323197611,0,0,0,0,0,0,610,0,0
324240611,0,0,0,0,0,0,462,0,0,324317611,0,0,0,0,0,0,572,0,0
325360611,0,0,0,0,0,0,490,0,0,325437611,0,0,0,0,0,0,540,0,0
326480611,0,0,0,0,0,0,491,0,0,326557611,0,0,0,0,0,0,559,0,0
327600611,0,0,0,0,0,0,480,0,0,327677611,0,0,0,0,0,0,522,0,0
328720611,0,0,0,0,0,0,12125,0,0,328797611,0,0,0,0,0,0,-987,0,0
329840611,0,0,0,0,0,0,12109,0,0,329917611,0,0,0,0,0,0,-967,0,0
330960611,0,0,0,0,0,0,12113,0,0,331037611,0,0,0,0,0,0,-992,0,0
332080611,0,0,0,0,0,0,12108,0,0,332157611,0,0,0,0,0,0,-994,0,0
333200611,0,0,0,0,0,0,12125,0,0,333277611,0,0,0,0,0,0,-997,0,0
334320611,0,0,0,0,0,0,12097,0,0,334397611,0,0,0,0,0,0,-989,0,0
335440611,0,0,0,0,0,0,12154,0,0,335517611,0,0,0,0,0,0,-1009,0,0
336560611,0,0,0,0,0,0,12089,0,0,336637611,0,0,0,0,0,0,-960,0,0
337680611,0,0,0,0,0,0,487,0,0,337757611,0,0,0,0,0,0,595,0,0
338800611,0,0,0,0,0,0,466,0,0,338877611,0,0,0,0,0,0,587,0,0
339920611,0,0,0,0,0,0,524,0,0,339997611,0,0,0,0,0,0,591,0,0
341040611,0,0,0,0,0,0,498,0,0,341117611,0,0,0,0,0,0,600,0,0
342160611,0,0,0,0,0,0,522,0,0,342237611,0,0,0,0,0,0,573,0,0
343280611,0,0,0,0,0,0,483,0,0,343357611,0,0,0,0,0,0,575,0,0
344400611,0,0,0,0,0,0,497,0,0,344477611,0,0,0,0,0,0,583,0,0
345520611,0,0,0,0,0,0,488,0,0,345597611,0,0,0,0,0,0,618,0,0
346640611,0,0,0,0,0,0,12081,0,0,346717611,0,0,0,0,0,0,-948,0,0
347760611,0,0,0,0,0,0,12107,0,0,347837611,0,0,0,0,0,0,-961,0,0
348880611,0,0,0,0,0,0,12080,0,0,348957611,0,0,0,0,0,0,-978,0,0
350000611,0,0,0,0,0,0,12117,0,0,350077611,0,0,0,0,0,0,-981,0,0
351120611,0,0,0,0,0,0,12101,0,0,351197611,0,0,0,0,0,0,-928,0,0
352240611,0,0,0,0,0,0,12108,0,0,352317611,0,0,0,0,0,0,-985,0,0
353360611,0,0,0,0,0,0,12107,0,0,353437611,0,0,0,0,0,0,-1017,0,0
354480611,0,0,0,0,0,0,12092,0,0,354557611,0,0,0,0,0,0,-970,0,0
355600611,0,0,0,0,0,0,434,0,0,355677611,0,0,0,0,0,0,583,0,0
356720611,0,0,0,0,0,0,507,0,0,356797611,0,0,0,0,0,0,588,0,0
357840611,0,0,0,0,0,0,463,0,0,357917611,0,0,0,0,0,0,574,0,0
358960611,0,0,0,0,0,0,485,0,0,359037611,0,0,0,0,0,0,555,0,0
360080611,0,0,0,0,0,0,503,0,0,360157611,0,0,0,0,0,0,576,0,0
361200611,0,0,0,0,0,0,497,0,0,361277611,0,0,0,0,0,0,610,0,0
362320611,0,0,0,0,0,0,462,0,0,362397611,0,0,0,0,0,0,557,0,0
363440611,0,0,0,0,0,0,453,0,0,363517611,0,0,0,0,0,0,582,0,0
364560611,0,0,0,0,0,0,12081,0,0,364637611,0,0,0,0,0,0,-1001,0,0
365680611,0,0,0,0,0,0,12046,0,0,365757611,0,0,0,0,0,0,-1020,0,0
366800611,0,0,0,0,0,0,12102,0,0,366877611,0,0,0,0,0,0,-955,0,0
367920611,0,0,0,0,0,0,12092,0,0,367997611,0,0,0,0,0,0,-991,0,0
369040611,0,0,0,0,0,0,12104,0,0,369117611,0,0,0,0,0,0,-982,0,0
370160611,0,0,0,0,0,0,12119,0,0,370237611,0,0,0,0,0,0,-1008,0,0
371280611,0,0,0,0,0,0,12096,0,0,371357611,0,0,0,0,0,0,-962,0,0
372400611,0,0,0,0,0,0,12098,0,0,372477611,0,0,0,0,0,0,-1025,0,0
373520611,0,0,0,0,0,0,491,0,0,373597611,0,0,0,0,0,0,598,0,0
374640611,0,0,0,0,0,0,484,0,0,374717611,0,0,0,0,0,0,585,0,0
375760611,0,0,0,0,0,0,513,0,0,375837611,0,0,0,0,0,0,553,0,0
376880611,0,0,0,0,0,0,450,0,0,376957611,0,0,0,0,0,0,600,0,0
378000611,0,0,0,0,0,0,445,0,0,378077611,0,0,0,0,0,0,557,0,0
379120611,0,0,0,0,0,0,487,0,0,379197611,0,0,0,0,0,0,601,0,0
380240611,0,0,0,0,0,0,485,0,0,380317611,0,0,0,0,0,0,571,0,0
381360611,0,0,0,0,0,0,479,0,0,381437611,0,0,0,0,0,0,615,0,0
382480611,0,0,0,0,0,0,12072,0,0,382557611,0,0,0,0,0,0,-949,0,0
383600611,0,0,0,0,0,0,12114,0,0,383677611,0,0,0,0,0,0,-958,0,0
384720611,0,0,0,0,0,0,12090,0,0,384797611,0,0,0,0,0,0,-1009,0,0
385840611,0,0,0,0,0,0,12088,0,0,385917611,0,0,0,0,0,0,-1041,0,0
386960611,0,0,0,0,0,0,12091,0,0,387037611,0,0,0,0,0,0,-998,0,0
388080611,0,0,0,0,0,0,12139,0,0,388157611,0,0,0,0,0,0,-968,0,0
389200611,0,0,0,0,0,0,12102,0,0,389277611,0,0,0,0,0,0,-991,0,0
390320611,0,0,0,0,0,0,12107,0,0,390397611,0,0,0,0,0,0,-996,0,0
391440611,0,0,0,0,0,0,486,0,0,391517611,0,0,0,0,0,0,545,0,0
392560611,0,0,0,0,0,0,505,0,0,392637611,0,0,0,0,0,0,565,0,0
393680611,0,0,0,0,0,0,496,0,0,393757611,0,0,0,0,0,0,582,0,0
394800611,0,0,0,0,0,0,463,0,0,394877611,0,0,0,0,0,0,552,0,0
395920611,0,0,0,0,0,0,477,0,0,395997611,0,0,0,0,0,0,530,0,0
397040611,0,0,0,0,0,0,453,0,0,397117611,0,0,0,0,0,0,537,0,0
398160611,0,0,0,0,0,0,486,0,0,398237611,0,0,0,0,0,0,595,0,0
399280611,0,0,0,0,0,0,474,0,0,399357611,0,0,0,0,0,0,579,0,0
400400611,0,0,0,0,0,0,12059,0,0,400477611,0,0,0,0,0,0,-946,0,0
401520611,0,0,0,0,0,0,12096,0,0,401597611,0,0,0,0,0,0,-987,0,0
402640611,0,0,0,0,0,0,12073,0,0,402717611,0,0,0,0,0,0,-978,0,0
403760611,0,0,0,0,0,0,12108,0,0,403837611,0,0,0,0,0,0,-1007,0,0
404880611,0,0,0,0,0,0,12078,0,0,404957611,0,0,0,0,0,0,-987,0,0
406000611,0,0,0,0,0,0,12112,0,0,406077611,0,0,0,0,0,0,-1001,0,0
407120611,0,0,0,0,0,0,12074,0,0,407197611,0,0,0,0,0,0,-957,0,0
408240611,0,0,0,0,0,0,12117,0,0,408317611,0,0,0,0,0,0,-962,0,0
409360611,0,0,0,0,0,0,487,0,0,409437611,0,0,0,0,0,0,608,0,0
410480611,0,0,0,0,0,0,500,0,0,410557611,0,0,0,0,0,0,598,0,0
411600611,0,0,0,0,0,0,496,0,0,411677611,0,0,0,0,0,0,574,0,0
412720611,0,0,0,0,0,0,485,0,0,412797611,0,0,0,0,0,0,605,0,0
413840611,0,0,0,0,0,0,525,0,0,413917611,0,0,0,0,0,0,587,0,0
414960611,0,0,0,0,0,0,465,0,0,415037611,0,0,0,0,0,0,562,0,0
416080611,0,0,0,0,0,0,460,0,0,416157611,0,0,0,0,0,0,557,0,0
417200611,0,0,0,0,0,0,487,0,0,417277611,0,0,0,0,0,0,564,0,0
418320611,0,0,0,0,0,0,12109,0,0,418397611,0,0,0,0,0,0,-1000,0,0
419440611,0,0,0,0,0,0,12073,0,0,419517611,0,0,0,0,0,0,-962,0,0
420560611,0,0,0,0,0,0,12107,0,0,420637611,0,0,0,0,0,0,-930,0,0
421680611,0,0,0,0,0,0,12110,0,0,421757611,0,0,0,0,0,0,-946,0,0
422800611,0,0,0,0,0,0,12102,0,0,422877611,0,0,0,0,0,0,-954,0,0
423920611,0,0,0,0,0,0,12060,0,0,423997611,0,0,0,0,0,0,-997,0,0
425040611,0,0,0,0,0,0,12090,0,0,425117611,0,0,0,0,0,0,-1005,0,0
426160611,0,0,0,0,0,0,12078,0,0,426237611,0,0,0,0,0,0,-966,0,0
427280611,0,0,0,0,0,0,485,0,0,427357611,0,0,0,0,0,0,577,0,0
428400611,0,0,0,0,0,0,427,0,0,428477611,0,0,0,0,0,0,599,0,0
429520611,0,0,0,0,0,0,515,0,0,429597611,0,0,0,0,0,0,555,0,0
430640611,0,0,0,0,0,0,510,0,0,430717611,0,0,0,0,0,0,546,0,0
431760611,0,0,0,0,0,0,445,0,0,431837611,0,0,0,0,0,0,582,0,0
432880611,0,0,0,0,0,0,511,0,0,432957611,0,0,0,0,0,0,538,0,0
434000611,0,0,0,0,0,0,507,0,0,434077611,0,0,0,0,0,0,534,0,0
435120611,0,0,0,0,0,0,540,0,0,435197611,0,0,0,0,0,0,593,0,0
436240611,0,0,0,0,0,0,12066,0,0,436317611,0,0,0,0,0,0,-972,0,0
437360611,0,0,0,0,0,0,12053,0,0,437437611,0,0,0,0,0,0,-979,0,0
438480611,0,0,0,0,0,0,12043,0,0,438557611,0,0,0,0,0,0,-943,0,0
439600611,0,0,0,0,0,0,12075,0,0,439677611,0,0,0,0,0,0,-963,0,0
440720611,0,0,0,0,0,0,12032,0,0,440797611,0,0,0,0,0,0,-955,0,0
441840611,0,0,0,0,0,0,12067,0,0,441917611,0,0,0,0,0,0,-968,0,0
442960611,0,0,0,0,0,0,12040,0,0,443037611,0,0,0,0,0,0,-1010,0,0
444080611,0,0,0,0,0,0,12061,0,0,444157611,0,0,0,0,0,0,-935,0,0
445200611,0,0,0,0,0,0,483,0,0,445277611,0,0,0,0,0,0,565,0,0
446320611,0,0,0,0,0,0,426,0,0,446397611,0,0,0,0,0,0,605,0,0
447440611,0,0,0,0,0,0,469,0,0,447517611,0,0,0,0,0,0,594,0,0
448560611,0,0,0,0,0,0,503,0,0,448637611,0,0,0,0,0,0,636,0,0
449680611,0,0,0,0,0,0,486,0,0,449757611,0,0,0,0,0,0,540,0,0
450800611,0,0,0,0,0,0,500,0,0,450877611,0,0,0,0,0,0,570,0,0
451920611,0,0,0,0,0,0,488,0,0,451997611,0,0,0,0,0,0,583,0,0
453040611,0,0,0,0,0,0,463,0,0,453117611,0,0,0,0,0,0,597,0,0
454160611,0,0,0,0,0,0,12073,0,0,454237611,0,0,0,0,0,0,-972,0,0
455280611,0,0,0,0,0,0,12126,0,0,455357611,0,0,0,0,0,0,-1016,0,0
456400611,0,0,0,0,0,0,12069,0,0,456477611,0,0,0,0,0,0,-1010,0,0
457520611,0,0,0,0,0,0,12034,0,0,457597611,0,0,0,0,0,0,-971,0,0
458640611,0,0,0,0,0,0,12070,0,0,458717611,0,0,0,0,0,0,-964,0,0
459760611,0,0,0,0,0,0,12034,0,0,459837611,0,0,0,0,0,0,-957,0,0
460880611,0,0,0,0,0,0,12125,0,0,460957611,0,0,0,0,0,0,-952,0,0
462000611,0,0,0,0,0,0,12095,0,0,462077611,0,0,0,0,0,0,-1013,0,0
463120611,0,0,0,0,0,0,465,0,0,463197611,0,0,0,0,0,0,652,0,0
464240611,0,0,0,0,0,0,485,0,0,464317611,0,0,0,0,0,0,588,0,0
465360611,0,0,0,0,0,0,468,0,0,465437611,0,0,0,0,0,0,553,0,0
466480611,0,0,0,0,0,0,493,0,0,466557611,0,0,0,0,0,0,584,0,0
467600611,0,0,0,0,0,0,478,0,0,467677611,0,0,0,0,0,0,586,0,0
468720611,0,0,0,0,0,0,458,0,0,468797611,0,0,0,0,0,0,550,0,0
469840611,0,0,0,0,0,0,501,0,0,469917611,0,0,0,0,0,0,591,0,0
470960611,0,0,0,0,0,0,487,0,0,471037611,0,0,0,0,0,0,571,0,0
472080611,0,0,0,0,0,0,12060,0,0,472157611,0,0,0,0,0,0,-948,0,0
473200611,0,0,0,0,0,0,12060,0,0,473277611,0,0,0,0,0,0,-944,0,0
474320611,0,0,0,0,0,0,12075,0,0,474397611,0,0,0,0,0,0,-966,0,0
475440611,0,0,0,0,0,0,12080,0,0,475517611,0,0,0,0,0,0,-933,0,0
476560611,0,0,0,0,0,0,12012,0,0,476637611,0,0,0,0,0,0,-972,0,0
477680611,0,0,0,0,0,0,12103,0,0,477757611,0,0,0,0,0,0,-982,0,0
478800611,0,0,0,0,0,0,12061,0,0,478877611,0,0,0,0,0,0,-982,0,0
479920611,0,0,0,0,0,0,12092,0,0,479997611,0,0,0,0,0,0,-961,0,0
481040611,0,0,0,0,0,0,460,0,0,481117611,0,0,0,0,0,0,566,0,0
482160611,0,0,0,0,0,0,450,0,0,482237611,0,0,0,0,0,0,546,0,0
483280611,0,0,0,0,0,0,465,0,0,483357611,0,0,0,0,0,0,641,0,0
484400611,0,0,0,0,0,0,488,0,0,484477611,0,0,0,0,0,0,542,0,0
485520611,0,0,0,0,0,0,506,0,0,485597611,0,0,0,0,0,0,545,0,0
486640611,0,0,0,0,0,0,448,0,0,486717611,0,0,0,0,0,0,574,0,0
487760611,0,0,0,0,0,0,508,0,0,487837611,0,0,0,0,0,0,550,0,0
488880611,0,0,0,0,0,0,482,0,0,488957611,0,0,0,0,0,0,584,0,0
490000611,0,0,0,0,0,0,12098,0,0,490077611,0,0,0,0,0,0,-993,0,0
491120611,0,0,0,0,0,0,12117,0,0,491197611,0,0,0,0,0,0,-976,0,0
492240611,0,0,0,0,0,0,12104,0,0,492317611,0,0,0,0,0,0,-961,0,0
493360611,0,0,0,0,0,0,12076,0,0,493437611,0,0,0,0,0,0,-1004,0,0
494480611,0,0,0,0,0,0,12038,0,0,494557611,0,0,0,0,0,0,-975,0,0
495600611,0,0,0,0,0,0,12063,0,0,495677611,0,0,0,0,0,0,-990,0,0
496720611,0,0,0,0,0,0,12071,0,0,496797611,0,0,0,0,0,0,-964,0,0
497840611,0,0,0,0,0,0,12080,0,0,497917611,0,0,0,0,0,0,-1000,0,0
498960611,0,0,0,0,0,0,453,0,0,499037611,0,0,0,0,0,0,567,0,0
500080611,0,0,0,0,0,0,471,0,0,500157611,0,0,0,0,0,0,579,0,0
501200611,0,0,0,0,0,0,503,0,0,501277611,0,0,0,0,0,0,566,0,0
502320611,0,0,0,0,0,0,455,0,0,502397611,0,0,0,0,0,0,531,0,0
503440611,0,0,0,0,0,0,514,0,0,503517611,0,0,0,0,0,0,576,0,0
504560611,0,0,0,0,0,0,453,0,0,504637611,0,0,0,0,0,0,559,0,0
505680611,0,0,0,0,0,0,495,0,0,505757611,0,0,0,0,0,0,593,0,0
506800611,0,0,0,0,0,0,459,0,0,506877611,0,0,0,0,0,0,574,0,0
507920611,0,0,0,0,0,0,12113,0,0,507997611,0,0,0,0,0,0,-926,0,0
509040611,0,0,0,0,0,0,12024,0,0,509117611,0,0,0,0,0,0,-980,0,0
510160611,0,0,0,0,0,0,12043,0,0,510237611,0,0,0,0,0,0,-984,0,0
511280611,0,0,0,0,0,0,12079,0,0,511357611,0,0,0,0,0,0,-959,0,0
512400611,0,0,0,0,0,0,12096,0,0,512477611,0,0,0,0,0,0,-1003,0,0
513520611,0,0,0,0,0,0,12017,0,0,513597611,0,0,0,0,0,0,-974,0,0
514640611,0,0,0,0,0,0,12005,0,0,514717611,0,0,0,0,0,0,-964,0,0
515760611,0,0,0,0,0,0,12105,0,0,515837611,0,0,0,0,0,0,-1002,0,0
516880611,0,0,0,0,0,0,483,0,0,516957611,0,0,0,0,0,0,615,0,0
518000611,0,0,0,0,0,0,506,0,0,518077611,0,0,0,0,0,0,561,0,0
519120611,0,0,0,0,0,0,531,0,0,519197611,0,0,0,0,0,0,571,0,0
520240611,0,0,0,0,0,0,488,0,0,520317611,0,0,0,0,0,0,579,0,0
521360611,0,0,0,0,0,0,469,0,0,521437611,0,0,0,0,0,0,542,0,0
522480611,0,0,0,0,0,0,472,0,0,522557611,0,0,0,0,0,0,593,0,0
523600611,0,0,0,0,0,0,456,0,0,523677611,0,0,0,0,0,0,544,0,0
524720611,0,0,0,0,0,0,438,0,0,524797611,0,0,0,0,0,0,606,0,0
525840611,0,0,0,0,0,0,12034,0,0,525917611,0,0,0,0,0,0,-1025,0,0
526960611,0,0,0,0,0,0,12077,0,0,527037611,0,0,0,0,0,0,-978,0,0
528080611,0,0,0,0,0,0,12053,0,0,528157611,0,0,0,0,0,0,-956,0,0
529200611,0,0,0,0,0,0,12071,0,0,529277611,0,0,0,0,0,0,-923,0,0
530320611,0,0,0,0,0,0,12052,0,0,530397611,0,0,0,0,0,0,-997,0,0
531440611,0,0,0,0,0,0,12059,0,0,531517611,0,0,0,0,0,0,-931,0,0
532560611,0,0,0,0,0,0,12019,0,0,532637611,0,0,0,0,0,0,-993,0,0
533680611,0,0,0,0,0,0,12065,0,0,533757611,0,0,0,0,0,0,-981,0,0
534800611,0,0,0,0,0,0,454,0,0,534877611,0,0,0,0,0,0,600,0,0
535920611,0,0,0,0,0,0,497,0,0,535997611,0,0,0,0,0,0,591,0,0
537040611,0,0,0,0,0,0,446,0,0,537117611,0,0,0,0,0,0,584,0,0
538160611,0,0,0,0,0,0,499,0,0,538237611,0,0,0,0,0,0,616,0,0
539280611,0,0,0,0,0,0,444,0,0,539357611,0,0,0,0,0,0,595,0,0
540400611,0,0,0,0,0,0,465,0,0,540477611,0,0,0,0,0,0,602,0,0
541520611,0,0,0,0,0,0,472,0,0,541597611,0,0,0,0,0,0,562,0,0
542640611,0,0,0,0,0,0,476,0,0,542717611,0,0,0,0,0,0,578,0,0
543760611,0,0,0,0,0,0,12123,0,0,543837611,0,0,0,0,0,0,-981,0,0
544880611,0,0,0,0,0,0,12051,0,0,544957611,0,0,0,0,0,0,-957,0,0
546000611,0,0,0,0,0,0,12075,0,0,546077611,0,0,0,0,0,0,-967,0,0
547120611,0,0,0,0,0,0,12038,0,0,547197611,0,0,0,0,0,0,-988,0,0
548240611,0,0,0,0,0,0,12085,0,0,548317611,0,0,0,0,0,0,-987,0,0
549360611,0,0,0,0,0,0,12075,0,0,549437611,0,0,0,0,0,0,-968,0,0
550480611,0,0,0,0,0,0,12094,0,0,550557611,0,0,0,0,0,0,-993,0,0
551600611,0,0,0,0,0,0,12075,0,0,551677611,0,0,0,0,0,0,-946,0,0
552720611,0,0,0,0,0,0,452,0,0,552797611,0,0,0,0,0,0,530,0,0
553840611,0,0,0,0,0,0,498,0,0,553917611,0,0,0,0,0,0,579,0,0
554960611,0,0,0,0,0,0,484,0,0,555037611,0,0,0,0,0,0,607,0,0
556080611,0,0,0,0,0,0,490,0,0,556157611,0,0,0,0,0,0,592,0,0
557200611,0,0,0,0,0,0,490,0,0,557277611,0,0,0,0,0,0,597,0,0
558320611,0,0,0,0,0,0,508,0,0,558397611,0,0,0,0,0,0,538,0,0
559440611,0,0,0,0,0,0,466,0,0,559517611,0,0,0,0,0,0,566,0,0
560560611,0,0,0,0,0,0,432,0,0,560637611,0,0,0,0,0,0,553,0,0
561680611,0,0,0,0,0,0,12031,0,0,561757611,0,0,0,0,0,0,-1015,0,0
562800611,0,0,0,0,0,0,12059,0,0,562877611,0,0,0,0,0,0,-987,0,0
563920611,0,0,0,0,0,0,12065,0,0,563997611,0,0,0,0,0,0,-999,0,0
565040611,0,0,0,0,0,0,12087,0,0,565117611,0,0,0,0,0,0,-995,0,0
566160611,0,0,0,0,0,0,12037,0,0,566237611,0,0,0,0,0,0,-977,0,0
567280611,0,0,0,0,0,0,12068,0,0,567357611,0,0,0,0,0,0,-1013,0,0
568400611,0,0,0,0,0,0,12025,0,0,568477611,0,0,0,0,0,0,-962,0,0
569520611,0,0,0,0,0,0,12037,0,0,569597611,0,0,0,0,0,0,-958,0,0
570640611,0,0,0,0,0,0,482,0,0,570717611,0,0,0,0,0,0,537,0,0
571760611,0,0,0,0,0,0,479,0,0,571837611,0,0,0,0,0,0,522,0,0
572880611,0,0,0,0,0,0,489,0,0,572957611,0,0,0,0,0,0,588,0,0
574000611,0,0,0,0,0,0,476,0,0,574077611,0,0,0,0,0,0,588,0,0
575120611,0,0,0,0,0,0,476,0,0,575197611,0,0,0,0,0,0,581,0,0
576240611,0,0,0,0,0,0,436,0,0,576317611,0,0,0,0,0,0,614,0,0
577360611,0,0,0,0,0,0,484,0,0,577437611,0,0,0,0,0,0,549,0,0
578480611,0,0,0,0,0,0,515,0,0,578557611,0,0,0,0,0,0,565,0,0
579600611,0,0,0,0,0,0,12022,0,0,579677611,0,0,0,0,0,0,-987,0,0
580720611,0,0,0,0,0,0,12089,0,0,580797611,0,0,0,0,0,0,-962,0,0
581840611,0,0,0,0,0,0,12084,0,0,581917611,0,0,0,0,0,0,-941,0,0
582960611,0,0,0,0,0,0,12056,0,0,583037611,0,0,0,0,0,0,-984,0,0
584080611,0,0,0,0,0,0,12073,0,0,584157611,0,0,0,0,0,0,-984,0,0
585200611,0,0,0,0,0,0,12081,0,0,585277611,0,0,0,0,0,0,-959,0,0
586320611,0,0,0,0,0,0,12096,0,0,586397611,0,0,0,0,0,0,-975,0,0
587440611,0,0,0,0,0,0,12065,0,0,587517611,0,0,0,0,0,0,-983,0,0
588560611,0,0,0,0,0,0,480,0,0,588637611,0,0,0,0,0,0,569,0,0
589680611,0,0,0,0,0,0,476,0,0,589757611,0,0,0,0,0,0,596,0,0
590800611,0,0,0,0,0,0,467,0,0,590877611,0,0,0,0,0,0,563,0,0
591920611,0,0,0,0,0,0,487,0,0,591997611,0,0,0,0,0,0,566,0,0
593040611,0,0,0,0,0,0,482,0,0,593117611,0,0,0,0,0,0,577,0,0
594160611,0,0,0,0,0,0,465,0,0,594237611,0,0,0,0,0,0,552,0,0
595280611,0,0,0,0,0,0,490,0,0,595357611,0,0,0,0,0,0,574,0,0
596400611,0,0,0,0,0,0,458,0,0,596477611,0,0,0,0,0,0,564,0,0
597520611,0,0,0,0,0,0,12054,0,0,597597611,0,0,0,0,0,0,-938,0,0
598640611,0,0,0,0,0,0,12086,0,0,598717611,0,0,0,0,0,0,-983,0,0
599760611,0,0,0,0,0,0,12033,0,0,599837611,0,0,0,0,0,0,-953,0,0
600880611,0,0,0,0,0,0,12016,0,0,600957611,0,0,0,0,0,0,-936,0,0
602000611,0,0,0,0,0,0,12071,0,0,602077611,0,0,0,0,0,0,-947,0,0
603120611,0,0,0,0,0,0,12044,0,0,603197611,0,0,0,0,0,0,-915,0,0
604240611,0,0,0,0,0,0,12102,0,0,604317611,0,0,0,0,0,0,-980,0,0
605360611,0,0,0,0,0,0,12068,0,0,605437611,0,0,0,0,0,0,-944,0,0
606480611,0,0,0,0,0,0,482,0,0,606557611,0,0,0,0,0,0,565,0,0
607600611,0,0,0,0,0,0,499,0,0,607677611,0,0,0,0,0,0,605,0,0
608720611,0,0,0,0,0,0,465,0,0,608797611,0,0,0,0,0,0,591,0,0
609840611,0,0,0,0,0,0,488,0,0,609917611,0,0,0,0,0,0,563,0,0
610960611,0,0,0,0,0,0,450,0,0,611037611,0,0,0,0,0,0,568,0,0
612080611,0,0,0,0,0,0,478,0,0,612157611,0,0,0,0,0,0,639,0,0
613200611,0,0,0,0,0,0,446,0,0,613277611,0,0,0,0,0,0,572,0,0
614320611,0,0,0,0,0,0,480,0,0,614397611,0,0,0,0,0,0,539,0,0
615440611,0,0,0,0,0,0,11975,0,0,615517611,0,0,0,0,0,0,-1014,0,0
616560611,0,0,0,0,0,0,12065,0,0,616637611,0,0,0,0,0,0,-999,0,0
617680611,0,0,0,0,0,0,12053,0,0,617757611,0,0,0,0,0,0,-997,0,0
618800611,0,0,0,0,0,0,12019,0,0,618877611,0,0,0,0,0,0,-993,0,0
619920611,0,0,0,0,0,0,12067,0,0,619997611,0,0,0,0,0,0,-926,0,0
621040611,0,0,0,0,0,0,12069,0,0,621117611,0,0,0,0,0,0,-980,0,0
622160611,0,0,0,0,0,0,12063,0,0,622237611,0,0,0,0,0,0,-956,0,0
623280611,0,0,0,0,0,0,12052,0,0,623357611,0,0,0,0,0,0,-948,0,0
624400611,0,0,0,0,0,0,471,0,0,624477611,0,0,0,0,0,0,541,0,0
625520611,0,0,0,0,0,0,432,0,0,625597611,0,0,0,0,0,0,589,0,0
626640611,0,0,0,0,0,0,435,0,0,626717611,0,0,0,0,0,0,550,0,0
627760611,0,0,0,0,0,0,484,0,0,627837611,0,0,0,0,0,0,525,0,0
628880611,0,0,0,0,0,0,489,0,0,628957611,0,0,0,0,0,0,600,0,0
630000611,0,0,0,0,0,0,490,0,0,630077611,0,0,0,0,0,0,565,0,0
631120611,0,0,0,0,0,0,468,0,0,631197611,0,0,0,0,0,0,566,0,0
632240611,0,0,0,0,0,0,479,0,0,632317611,0,0,0,0,0,0,550,0,0
633360611,0,0,0,0,0,0,12026,0,0,633437611,0,0,0,0,0,0,-948,0,0
634480611,0,0,0,0,0,0,12092,0,0,634557611,0,0,0,0,0,0,-924,0,0
635600611,0,0,0,0,0,0,12044,0,0,635677611,0,0,0,0,0,0,-950,0,0
636720611,0,0,0,0,0,0,12045,0,0,636797611,0,0,0,0,0,0,-1000,0,0
637840611,0,0,0,0,0,0,11990,0,0,637917611,0,0,0,0,0,0,-926,0,0
638960611,0,0,0,0,0,0,12051,0,0,639037611,0,0,0,0,0,0,-969,0,0
640080611,0,0,0,0,0,0,12076,0,0,640157611,0,0,0,0,0,0,-934,0,0
641200611,0,0,0,0,0,0,12086,0,0,641277611,0,0,0,0,0,0,-1022,0,0
642320611,0,0,0,0,0,0,476,0,0,642397611,0,0,0,0,0,0,559,0,0
643440611,0,0,0,0,0,0,492,0,0,643517611,0,0,0,0,0,0,525,0,0
644560611,0,0,0,0,0,0,466,0,0,644637611,0,0,0,0,0,0,554,0,0
645680611,0,0,0,0,0,0,462,0,0,645757611,0,0,0,0,0,0,609,0,0
646800611,0,0,0,0,0,0,490,0,0,646877611,0,0,0,0,0,0,591,0,0
647920611,0,0,0,0,0,0,484,0,0,647997611,0,0,0,0,0,0,590,0,0
649040611,0,0,0,0,0,0,498,0,0,649117611,0,0,0,0,0,0,586,0,0
650160611,0,0,0,0,0,0,496,0,0,650237611,0,0,0,0,0,0,614,0,0
651280611,0,0,0,0,0,0,11956,0,0,651357611,0,0,0,0,0,0,-963,0,0
652400611,0,0,0,0,0,0,12067,0,0,652477611,0,0,0,0,0,0,-998,0,0
653520611,0,0,0,0,0,0,12095,0,0,653597611,0,0,0,0,0,0,-897,0,0
654640611,0,0,0,0,0,0,11996,0,0,654717611,0,0,0,0,0,0,-972,0,0
655760611,0,0,0,0,0,0,12049,0,0,655837611,0,0,0,0,0,0,-949,0,0
656880611,0,0,0,0,0,0,12039,0,0,656957611,0,0,0,0,0,0,-965,0,0
658000611,0,0,0,0,0,0,12029,0,0,658077611,0,0,0,0,0,0,-991,0,0
659120611,0,0,0,0,0,0,12081,0,0,659197611,0,0,0,0,0,0,-898,0,0
660240611,0,0,0,0,0,0,450,0,0,660317611,0,0,0,0,0,0,568,0,0
661360611,0,0,0,0,0,0,492,0,0,661437611,0,0,0,0,0,0,578,0,0
662480611,0,0,0,0,0,0,495,0,0,662557611,0,0,0,0,0,0,535,0,0
663600611,0,0,0,0,0,0,461,0,0,663677611,0,0,0,0,0,0,535,0,0
664720611,0,0,0,0,0,0,439,0,0,664797611,0,0,0,0,0,0,562,0,0
665840611,0,0,0,0,0,0,496,0,0,665917611,0,0,0,0,0,0,593,0,0
666960611,0,0,0,0,0,0,460,0,0,667037611,0,0,0,0,0,0,617,0,0
668080611,0,0,0,0,0,0,469,0,0,668157611,0,0,0,0,0,0,552,0,0
669200611,0,0,0,0,0,0,11946,0,0,669277611,0,0,0,0,0,0,-925,0,0
670320611,0,0,0,0,0,0,12037,0,0,670397611,0,0,0,0,0,0,-943,0,0
671440611,0,0,0,0,0,0,12041,0,0,671517611,0,0,0,0,0,0,-989,0,0
672560611,0,0,0,0,0,0,12010,0,0,672637611,0,0,0,0,0,0,-943,0,0
673680611,0,0,0,0,0,0,12071,0,0,673757611,0,0,0,0,0,0,-990,0,0
674800611,0,0,0,0,0,0,12080,0,0,674877611,0,0,0,0,0,0,-951,0,0
675920611,0,0,0,0,0,0,12039,0,0,675997611,0,0,0,0,0,0,-980,0,0
677040611,0,0,0,0,0,0,12036,0,0,677117611,0,0,0,0,0,0,-1023,0,0
678160611,0,0,0,0,0,0,496,0,0,678237611,0,0,0,0,0,0,559,0,0
679280611,0,0,0,0,0,0,509,0,0,679357611,0,0,0,0,0,0,586,0,0
680400611,0,0,0,0,0,0,499,0,0,680477611,0,0,0,0,0,0,576,0,0
681520611,0,0,0,0,0,0,500,0,0,681597611,0,0,0,0,0,0,562,0,0
682640611,0,0,0,0,0,0,486,0,0,682717611,0,0,0,0,0,0,598,0,0
683760611,0,0,0,0,0,0,478,0,0,683837611,0,0,0,0,0,0,595,0,0
684880611,0,0,0,0,0,0,470,0,0,684957611,0,0,0,0,0,0,587,0,0
686000611,0,0,0,0,0,0,490,0,0,686077611,0,0,0,0,0,0,579,0,0
687120611,0,0,0,0,0,0,11916,0,0,687197611,0,0,0,0,0,0,-931,0,0
688240611,0,0,0,0,0,0,12024,0,0,688317611,0,0,0,0,0,0,-971,0,0
689360611,0,0,0,0,0,0,12022,0,0,689437611,0,0,0,0,0,0,-1003,0,0
690480611,0,0,0,0,0,0,12024,0,0,690557611,0,0,0,0,0,0,-951,0,0
691600611,0,0,0,0,0,0,12008,0,0,691677611,0,0,0,0,0,0,-991,0,0
692720611,0,0,0,0,0,0,12044,0,0,692797611,0,0,0,0,0,0,-979,0,0
693840611,0,0,0,0,0,0,12030,0,0,693917611,0,0,0,0,0,0,-980,0,0
694960611,0,0,0,0,0,0,12048,0,0,695037611,0,0,0,0,0,0,-978,0,0
696080611,0,0,0,0,0,0,512,0,0,696157611,0,0,0,0,0,0,554,0,0
697200611,0,0,0,0,0,0,489,0,0,697277611,0,0,0,0,0,0,599,0,0
698320611,0,0,0,0,0,0,504,0,0,698397611,0,0,0,0,0,0,610,0,0
699440611,0,0,0,0,0,0,452,0,0,699517611,0,0,0,0,0,0,620,0,0
700560611,0,0,0,0,0,0,461,0,0,700637611,0,0,0,0,0,0,610,0,0
701680611,0,0,0,0,0,0,493,0,0,701757611,0,0,0,0,0,0,581,0,0
702800611,0,0,0,0,0,0,517,0,0,702877611,0,0,0,0,0,0,591,0,0
703920611,0,0,0,0,0,0,485,0,0,703997611,0,0,0,0,0,0,556,0,0
705040611,0,0,0,0,0,0,11753,0,0,705117611,0,0,0,0,0,0,-977,0,0
706160611,0,0,0,0,0,0,12024,0,0,706237611,0,0,0,0,0,0,-993,0,0
707280611,0,0,0,0,0,0,12032,0,0,707357611,0,0,0,0,0,0,-976,0,0
708400611,0,0,0,0,0,0,12014,0,0,708477611,0,0,0,0,0,0,-954,0,0
709520611,0,0,0,0,0,0,12066,0,0,709597611,0,0,0,0,0,0,-952,0,0
710640611,0,0,0,0,0,0,12043,0,0,710717611,0,0,0,0,0,0,-938,0,0
711760611,0,0,0,0,0,0,11978,0,0,711837611,0,0,0,0,0,0,-951,0,0
712880611,0,0,0,0,0,0,12051,0,0,712957611,0,0,0,0,0,0,-1010,0,0
714000611,0,0,0,0,0,0,510,0,0,714077611,0,0,0,0,0,0,560,0,0
715120611,0,0,0,0,0,0,473,0,0,715197611,0,0,0,0,0,0,559,0,0
716240611,0,0,0,0,0,0,459,0,0,716317611,0,0,0,0,0,0,617,0,0
717360611,0,0,0,0,0,0,484,0,0,717437611,0,0,0,0,0,0,602,0,0
718480611,0,0,0,0,0,0,493,0,0,718557611,0,0,0,0,0,0,596,0,0
719600611,0,0,0,0,0,0,437,0,0,719677611,0,0,0,0,0,0,602,0,0
720720611,0,0,0,0,0,0,474,0,0,720797611,0,0,0,0,0,0,601,0,0
721840611,0,0,0,0,0,0,414,0,0,721917611,0,0,0,0,0,0,582,0,0
722960611,0,0,0,0,0,0,11477,0,0,723037611,0,0,0,0,0,0,-981,0,0
724080611,0,0,0,0,0,0,12027,0,0,724157611,0,0,0,0,0,0,-986,0,0
725200611,0,0,0,0,0,0,12102,0,0,725277611,0,0,0,0,0,0,-1007,0,0
726320611,0,0,0,0,0,0,12068,0,0,726397611,0,0,0,0,0,0,-1018,0,0
727440611,0,0,0,0,0,0,12007,0,0,727517611,0,0,0,0,0,0,-954,0,0
728560611,0,0,0,0,0,0,12012,0,0,728637611,0,0,0,0,0,0,-948,0,0
729680611,0,0,0,0,0,0,12045,0,0,729757611,0,0,0,0,0,0,-999,0,0
730800611,0,0,0,0,0,0,12024,0,0,730877611,0,0,0,0,0,0,-948,0,0
731920611,0,0,0,0,0,0,529,0,0,731997611,0,0,0,0,0,0,520,0,0
733040611,0,0,0,0,0,0,425,0,0,733117611,0,0,0,0,0,0,556,0,0
734160611,0,0,0,0,0,0,437,0,0,734237611,0,0,0,0,0,0,570,0,0
735280611,0,0,0,0,0,0,471,0,0,735357611,0,0,0,0,0,0,573,0,0
736400611,0,0,0,0,0,0,446,0,0,736477611,0,0,0,0,0,0,570,0,0
737520611,0,0,0,0,0,0,521,0,0,737597611,0,0,0,0,0,0,555,0,0
738640611,0,0,0,0,0,0,468,0,0,738717611,0,0,0,0,0,0,553,0,0
739760611,0,0,0,0,0,0,454,0,0,739837611,0,0,0,0,0,0,548,0,0
740880611,0,0,0,0,0,0,10944,0,0,740957611,0,0,0,0,0,0,-959,0,0
742000611,0,0,0,0,0,0,12033,0,0,742077611,0,0,0,0,0,0,-975,0,0
743120611,0,0,0,0,0,0,11989,0,0,743197611,0,0,0,0,0,0,-1001,0,0
744240611,0,0,0,0,0,0,12006,0,0,744317611,0,0,0,0,0,0,-976,0,0
745360611,0,0,0,0,0,0,11983,0,0,745437611,0,0,0,0,0,0,-943,0,0
746480611,0,0,0,0,0,0,12037,0,0,746557611,0,0,0,0,0,0,-999,0,0
747600611,0,0,0,0,0,0,12033,0,0,747677611,0,0,0,0,0,0,-904,0,0
748720611,0,0,0,0,0,0,12038,0,0,748797611,0,0,0,0,0,0,-972,0,0
749840611,0,0,0,0,0,0,640,0,0,749917611,0,0,0,0,0,0,609,0,0
750960611,0,0,0,0,0,0,477,0,0,751037611,0,0,0,0,0,0,588,0,0
752080611,0,0,0,0,0,0,502,0,0,752157611,0,0,0,0,0,0,597,0,0
753200611,0,0,0,0,0,0,497,0,0,753277611,0,0,0,0,0,0,608,0,0
754320611,0,0,0,0,0,0,489,0,0,754397611,0,0,0,0,0,0,541,0,0
755440611,0,0,0,0,0,0,472,0,0,755517611,0,0,0,0,0,0,577,0,0
756560611,0,0,0,0,0,0,485,0,0,756637611,0,0,0,0,0,0,559,0,0
757680611,0,0,0,0,0,0,498,0,0,757757611,0,0,0,0,0,0,610,0,0
758800611,0,0,0,0,0,0,9970,0,0,758877611,0,0,0,0,0,0,-872,0,0
759920611,0,0,0,0,0,0,11999,0,0,759997611,0,0,0,0,0,0,-966,0,0
761040611,0,0,0,0,0,0,11994,0,0,761117611,0,0,0,0,0,0,-993,0,0
762160611,0,0,0,0,0,0,12005,0,0,762237611,0,0,0,0,0,0,-954,0,0
763280611,0,0,0,0,0,0,12006,0,0,763357611,0,0,0,0,0,0,-978,0,0
764400611,0,0,0,0,0,0,12014,0,0,764477611,0,0,0,0,0,0,-1019,0,0
765520611,0,0,0,0,0,0,12060,0,0,765597611,0,0,0,0,0,0,-972,0,0
766640611,0,0,0,0,0,0,12056,0,0,766717611,0,0,0,0,0,0,-991,0,0
767760611,0,0,0,0,0,0,1608,0,0,767837611,0,0,0,0,0,0,541,0,0
768880611,0,0,0,0,0,0,473,0,0,768957611,0,0,0,0,0,0,603,0,0
770000611,0,0,0,0,0,0,451,0,0,770077611,0,0,0,0,0,0,520,0,0
771120611,0,0,0,0,0,0,442,0,0,771197611,0,0,0,0,0,0,576,0,0
772240611,0,0,0,0,0,0,462,0,0,772317611,0,0,0,0,0,0,568,0,0
773360611,0,0,0,0,0,0,447,0,0,773437611,0,0,0,0,0,0,568,0,0
774480611,0,0,0,0,0,0,503,0,0,774557611,0,0,0,0,0,0,545,0,0
775600611,0,0,0,0,0,0,451,0,0,775677611,0,0,0,0,0,0,548,0,0
776720611,0,0,0,0,0,0,7772,0,0,776797611,0,0,0,0,0,0,-856,0,0
777840611,0,0,0,0,0,0,12017,0,0,777917611,0,0,0,0,0,0,-988,0,0
778960611,0,0,0,0,0,0,12041,0,0,779037611,0,0,0,0,0,0,-989,0,0
780080611,0,0,0,0,0,0,12030,0,0,780157611,0,0,0,0,0,0,-960,0,0
781200611,0,0,0,0,0,0,12017,0,0,781277611,0,0,0,0,0,0,-953,0,0
782320611,0,0,0,0,0,0,12017,0,0,782397611,0,0,0,0,0,0,-957,0,0
783440611,0,0,0,0,0,0,12058,0,0,783517611,0,0,0,0,0,0,-971,0,0
784560611,0,0,0,0,0,0,12020,0,0,784637611,0,0,0,0,0,0,-955,0,0
785680611,0,0,0,0,0,0,5514,0,0,785757611,0,0,0,0,0,0,550,0,0
786800611,0,0,0,0,0,0,443,0,0,786877611,0,0,0,0,0,0,554,0,0
787920611,0,0,0,0,0,0,494,0,0,787997611,0,0,0,0,0,0,571,0,0
789040611,0,0,0,0,0,0,447,0,0,789117611,0,0,0,0,0,0,556,0,0
790160611,0,0,0,0,0,0,457,0,0,790237611,0,0,0,0,0,0,628,0,0
791280611,0,0,0,0,0,0,470,0,0,791357611,0,0,0,0,0,0,571,0,0
792400611,0,0,0,0,0,0,465,0,0,792477611,0,0,0,0,0,0,575,0,0
793520611,0,0,0,0,0,0,506,0,0,793597611,0,0,0,0,0,0,593,0,0
794640611,0,0,0,0,0,0,2825,0,0,794717611,0,0,0,0,0,0,-802,0,0
795760611,0,0,0,0,0,0,12013,0,0,795837611,0,0,0,0,0,0,-981,0,0
796880611,0,0,0,0,0,0,11990,0,0,796957611,0,0,0,0,0,0,-951,0,0
798000611,0,0,0,0,0,0,12005,0,0,798077611,0,0,0,0,0,0,-1010,0,0
799120611,0,0,0,0,0,0,12053,0,0,799197611,0,0,0,0,0,0,-978,0,0
800240611,0,0,0,0,0,0,12046,0,0,800317611,0,0,0,0,0,0,-958,0,0
801360611,0,0,0,0,0,0,11996,0,0,801437611,0,0,0,0,0,0,-962,0,0
802480611,0,0,0,0,0,0,12053,0,0,802557611,0,0,0,0,0,0,-984,0,0
803600611,0,0,0,0,0,0,12025,0,0,803677611,0,0,0,0,0,0,490,0,0
804720611,0,0,0,0,0,0,465,0,0,804797611,0,0,0,0,0,0,570,0,0
805840611,0,0,0,0,0,0,435,0,0,805917611,0,0,0,0,0,0,544,0,0
806960611,0,0,0,0,0,0,479,0,0,807037611,0,0,0,0,0,0,563,0,0
808080611,0,0,0,0,0,0,432,0,0,808157611,0,0,0,0,0,0,529,0,0
809200611,0,0,0,0,0,0,443,0,0,809277611,0,0,0,0,0,0,591,0,0
810320611,0,0,0,0,0,0,454,0,0,810397611,0,0,0,0,0,0,528,0,0
811440611,0,0,0,0,0,0,524,0,0,811517611,0,0,0,0,0,0,588,0,0
812560611,0,0,0,0,0,0,497,0,0,812637611,0,0,0,0,0,0,597,0,0
813680611,0,0,0,0,0,0,400,0,0,813757611,0,0,0,0,0,0,594,0,0
814800611,0,0,0,0,0,0,460,0,0,814877611,0,0,0,0,0,0,567,0,0
815920611,0,0,0,0,0,0,500,0,0,815997611,0,0,0,0,0,0,573,0,0
817040611,0,0,0,0,0,0,505,0,0,817117611,0,0,0,0,0,0,520,0,0
818160611,0,0,0,0,0,0,458,0,0,818237611,0,0,0,0,0,0,509,0,0
819280611,0,0,0,0,0,0,480,0,0,819357611,0,0,0,0,0,0,540,0,0
820400611,0,0,0,0,0,0,479,0,0,820477611,0,0,0,0,0,0,578,0,0
821520611,0,0,0,0,0,0,499,0,0,821597611,0,0,0,0,0,0,576,0,0
822640611,0,0,0,0,0,0,441,0,0,822717611,0,0,0,0,0,0,557,0,0
823760611,0,0,0,0,0,0,473,0,0,823837611,0,0,0,0,0,0,625,0,0
824880611,0,0,0,0,0,0,473,0,0,824957611,0,0,0,0,0,0,607,0,0
826000611,0,0,0,0,0,0,442,0,0,826077611,0,0,0,0,0,0,562,0,0
827120611,0,0,0,0,0,0,481,0,0,827197611,0,0,0,0,0,0,584,0,0
828240611,0,0,0,0,0,0,467,0,0,828317611,0,0,0,0,0,0,587,0,0
829360611,0,0,0,0,0,0,495,0,0,829437611,0,0,0,0,0,0,567,0,0
830480611,0,0,0,0,0,0,501,0,0,830557611,0,0,0,0,0,0,596,0,0
831600611,0,0,0,0,0,0,497,0,0,831677611,0,0,0,0,0,0,601,0,0
832720611,0,0,0,0,0,0,493,0,0,832797611,0,0,0,0,0,0,566,0,0
833840611,0,0,0,0,0,0,481,0,0,833917611,0,0,0,0,0,0,541,0,0
834960611,0,0,0,0,0,0,491,0,0,835037611,0,0,0,0,0,0,563,0,0
836080611,0,0,0,0,0,0,493,0,0,836157611,0,0,0,0,0,0,607,0,0
837200611,0,0,0,0,0,0,426,0,0,837277611,0,0,0,0,0,0,627,0,0
838320611,0,0,0,0,0,0,459,0,0,838397611,0,0,0,0,0,0,607,0,0
839440611,0,0,0,0,0,0,459,0,0,839517611,0,0,0,0,0,0,561,0,0
840560611,0,0,0,0,0,0,428,0,0,840637611,0,0,0,0,0,0,556,0,0
841680611,0,0,0,0,0,0,486,0,0,841757611,0,0,0,0,0,0,571,0,0
842800611,0,0,0,0,0,0,454,0,0,842877611,0,0,0,0,0,0,558,0,0
843920611,0,0,0,0,0,0,412,0,0,843997611,0,0,0,0,0,0,580,0,0
845040611,0,0,0,0,0,0,485,0,0,845117611,0,0,0,0,0,0,576,0,0
846160611,0,0,0,0,0,0,457,0,0,846237611,0,0,0,0,0,0,537,0,0
847280611,0,0,0,0,0,0,487,0,0,847357611,0,0,0,0,0,0,573,0,0
848400611,0,0,0,0,0,0,467,0,0,848477611,0,0,0,0,0,0,532,0,0
849520611,0,0,0,0,0,0,431,0,0,849597611,0,0,0,0,0,0,558,0,0
850640611,0,0,0,0,0,0,450,0,0,850717611,0,0,0,0,0,0,584,0,0
851760611,0,0,0,0,0,0,456,0,0,851837611,0,0,0,0,0,0,590,0,0
852880611,0,0,0,0,0,0,393,0,0,852957611,0,0,0,0,0,0,598,0,0
854000611,0,0,0,0,0,0,471,0,0,854077611,0,0,0,0,0,0,607,0,0
855120611,0,0,0,0,0,0,456,0,0,855197611,0,0,0,0,0,0,547,0,0
856240611,0,0,0,0,0,0,512,0,0,856317611,0,0,0,0,0,0,586,0,0
857360611,0,0,0,0,0,0,479,0,0,857437611,0,0,0,0,0,0,569,0,0
858480611,0,0,0,0,0,0,483,0,0,858557611,0,0,0,0,0,0,557,0,0
859600611,0,0,0,0,0,0,518,0,0,859677611,0,0,0,0,0,0,601,0,0
860720611,0,0,0,0,0,0,486,0,0,860797611,0,0,0,0,0,0,574,0,0
861840611,0,0,0,0,0,0,464,0,0,861917611,0,0,0,0,0,0,597,0,0
862960611,0,0,0,0,0,0,445,0,0,863037611,0,0,0,0,0,0,577,0,0
864080611,0,0,0,0,0,0,441,0,0,864157611,0,0,0,0,0,0,545,0,0
865200611,0,0,0,0,0,0,450,0,0,865277611,0,0,0,0,0,0,581,0,0
866320611,0,0,0,0,0,0,420,0,0,866397611,0,0,0,0,0,0,573,0,0
867440611,0,0,0,0,0,0,501,0,0,867517611,0,0,0,0,0,0,569,0,0
868560611,0,0,0,0,0,0,466,0,0,868637611,0,0,0,0,0,0,578,0,0
869680611,0,0,0,0,0,0,449,0,0,869757611,0,0,0,0,0,0,582,0,0
870800611,0,0,0,0,0,0,498,0,0,870877611,0,0,0,0,0,0,604,0,0
871920611,0,0,0,0,0,0,500,0,0,871997611,0,0,0,0,0,0,572,0,0
873040611,0,0,0,0,0,0,470,0,0,873117611,0,0,0,0,0,0,556,0,0
874160611,0,0,0,0,0,0,486,0,0,874237611,0,0,0,0,0,0,593,0,0
875280611,0,0,0,0,0,0,490,0,0,875357611,0,0,0,0,0,0,580,0,0
876400611,0,0,0,0,0,0,528,0,0,876477611,0,0,0,0,0,0,529,0,0
877520611,0,0,0,0,0,0,458,0,0,877597611,0,0,0,0,0,0,586,0,0
878640611,0,0,0,0,0,0,472,0,0,878717611,0,0,0,0,0,0,568,0,0
879760611,0,0,0,0,0,0,470,0,0,879837611,0,0,0,0,0,0,554,0,0
880880611,0,0,0,0,0,0,479,0,0,880957611,0,0,0,0,0,0,574,0,0
882000611,0,0,0,0,0,0,507,0,0,882077611,0,0,0,0,0,0,561,0,0
883120611,0,0,0,0,0,0,466,0,0,883197611,0,0,0,0,0,0,559,0,0
884240611,0,0,0,0,0,0,437,0,0,884317611,0,0,0,0,0,0,631,0,0
885360611,0,0,0,0,0,0,500,0,0,885437611,0,0,0,0,0,0,571,0,0
886480611,0,0,0,0,0,0,459,0,0,886557611,0,0,0,0,0,0,605,0,0
887600611,0,0,0,0,0,0,486,0,0,887677611,0,0,0,0,0,0,570,0,0
888720611,0,0,0,0,0,0,480,0,0,888797611,0,0,0,0,0,0,598,0,0
889840611,0,0,0,0,0,0,459,0,0,889917611,0,0,0,0,0,0,547,0,0
890960611,0,0,0,0,0,0,491,0,0,891037611,0,0,0,0,0,0,563,0,0
892080611,0,0,0,0,0,0,479,0,0,892157611,0,0,0,0,0,0,567,0,0
893200611,0,0,0,0,0,0,507,0,0,893277611,0,0,0,0,0,0,604,0,0
894320611,0,0,0,0,0,0,498,0,0,894397611,0,0,0,0,0,0,586,0,0
895440611,0,0,0,0,0,0,508,0,0,895517611,0,0,0,0,0,0,552,0,0
896560611,0,0,0,0,0,0,481,0,0,896637611,0,0,0,0,0,0,540,0,0
897680611,0,0,0,0,0,0,462,0,0,897757611,0,0,0,0,0,0,583,0,0
898800611,0,0,0,0,0,0,445,0,0,898877611,0,0,0,0,0,0,561,0,0
899920611,0,0,0,0,0,0,487,0,0,899997611,0,0,0,0,0,0,578,0,0
901040611,0,0,0,0,0,0,527,0,0,901117611,0,0,0,0,0,0,573,0,0
902160611,0,0,0,0,0,0,458,0,0,902237611,0,0,0,0,0,0,611,0,0
903280611,0,0,0,0,0,0,488,0,0,903357611,0,0,0,0,0,0,593,0,0
904400611,0,0,0,0,0,0,500,0,0,904477611,0,0,0,0,0,0,575,0,0
905520611,0,0,0,0,0,0,495,0,0,905597611,0,0,0,0,0,0,575,0,0
906640611,0,0,0,0,0,0,483,0,0,906717611,0,0,0,0,0,0,585,0,0
907760611,0,0,0,0,0,0,438,0,0,907837611,0,0,0,0,0,0,535,0,0
908880611,0,0,0,0,0,0,477,0,0,908957611,0,0,0,0,0,0,559,0,0
910000611,0,0,0,0,0,0,502,0,0,910077611,0,0,0,0,0,0,583,0,0
911120611,0,0,0,0,0,0,501,0,0,911197611,0,0,0,0,0,0,600,0,0
912240611,0,0,0,0,0,0,485,0,0,912317611,0,0,0,0,0,0,567,0,0
913360611,0,0,0,0,0,0,509,0,0,913437611,0,0,0,0,0,0,609,0,0
914480611,0,0,0,0,0,0,462,0,0,914557611,0,0,0,0,0,0,574,0,0
915600611,0,0,0,0,0,0,430,0,0,915677611,0,0,0,0,0,0,585,0,0
916720611,0,0,0,0,0,0,475,0,0,916797611,0,0,0,0,0,0,574,0,0
917840611,0,0,0,0,0,0,488,0,0,917917611,0,0,0,0,0,0,620,0,0
918960611,0,0,0,0,0,0,455,0,0,919037611,0,0,0,0,0,0,579,0,0
920080611,0,0,0,0,0,0,477,0,0,920157611,0,0,0,0,0,0,562,0,0
921200611,0,0,0,0,0,0,540,0,0,921277611,0,0,0,0,0,0,582,0,0
922320611,0,0,0,0,0,0,456,0,0,922397611,0,0,0,0,0,0,612,0,0
923440611,0,0,0,0,0,0,488,0,0,923517611,0,0,0,0,0,0,571,0,0
924560611,0,0,0,0,0,0,497,0,0,924637611,0,0,0,0,0,0,587,0,0
925680611,0,0,0,0,0,0,494,0,0,925757611,0,0,0,0,0,0,625,0,0
926800611,0,0,0,0,0,0,6238,0,0,926877611,0,0,0,0,0,0,-851,0,0
927920611,0,0,0,0,0,0,12067,0,0,927997611,0,0,0,0,0,0,-999,0,0
929040611,0,0,0,0,0,0,12026,0,0,929117611,0,0,0,0,0,0,-982,0,0
930160611,0,0,0,0,0,0,12089,0,0,930237611,0,0,0,0,0,0,-973,0,0
931280611,0,0,0,0,0,0,12060,0,0,931357611,0,0,0,0,0,0,-996,0,0
932400611,0,0,0,0,0,0,12015,0,0,932477611,0,0,0,0,0,0,-970,0,0
933520611,0,0,0,0,0,0,12092,0,0,933597611,0,0,0,0,0,0,-975,0,0
934640611,0,0,0,0,0,0,12040,0,0,934717611,0,0,0,0,0,0,-993,0,0
935760611,0,0,0,0,0,0,4954,0,0,935837611,0,0,0,0,0,0,563,0,0
936880611,0,0,0,0,0,0,482,0,0,936957611,0,0,0,0,0,0,573,0,0
938000611,0,0,0,0,0,0,477,0,0,938077611,0,0,0,0,0,0,582,0,0
939120611,0,0,0,0,0,0,476,0,0,939197611,0,0,0,0,0,0,540,0,0
940240611,0,0,0,0,0,0,494,0,0,940317611,0,0,0,0,0,0,578,0,0
941360611,0,0,0,0,0,0,519,0,0,941437611,0,0,0,0,0,0,581,0,0
942480611,0,0,0,0,0,0,463,0,0,942557611,0,0,0,0,0,0,574,0,0
943600611,0,0,0,0,0,0,447,0,0,943677611,0,0,0,0,0,0,508,0,0
944720611,0,0,0,0,0,0,3591,0,0,944797611,0,0,0,0,0,0,-791,0,0
945840611,0,0,0,0,0,0,12073,0,0,945917611,0,0,0,0,0,0,-932,0,0
946960611,0,0,0,0,0,0,12075,0,0,947037611,0,0,0,0,0,0,-974,0,0
948080611,0,0,0,0,0,0,12046,0,0,948157611,0,0,0,0,0,0,-979,0,0
949200611,0,0,0,0,0,0,12043,0,0,949277611,0,0,0,0,0,0,-992,0,0
950320611,0,0,0,0,0,0,12093,0,0,950397611,0,0,0,0,0,0,-985,0,0
951440611,0,0,0,0,0,0,12062,0,0,951517611,0,0,0,0,0,0,-935,0,0
952560611,0,0,0,0,0,0,12042,0,0,952637611,0,0,0,0,0,0,-994,0,0
953680611,0,0,0,0,0,0,12055,0,0,953757611,0,0,0,0,0,0,493,0,0
954800611,0,0,0,0,0,0,467,0,0,954877611,0,0,0,0,0,0,598,0,0
955920611,0,0,0,0,0,0,493,0,0,955997611,0,0,0,0,0,0,561,0,0
957040611,0,0,0,0,0,0,448,0,0,957117611,0,0,0,0,0,0,575,0,0
958160611,0,0,0,0,0,0,472,0,0,958237611,0,0,0,0,0,0,586,0,0
959280611,0,0,0,0,0,0,458,0,0,959357611,0,0,0,0,0,0,569,0,0
960400611,0,0,0,0,0,0,466,0,0,960477611,0,0,0,0,0,0,574,0,0
961520611,0,0,0,0,0,0,482,0,0,961597611,0,0,0,0,0,0,628,0,0
962640611,0,0,0,0,0,0,515,0,0,962717611,0,0,0,0,0,0,-644,0,0
963760611,0,0,0,0,0,0,12055,0,0,963837611,0,0,0,0,0,0,-960,0,0
964880611,0,0,0,0,0,0,12062,0,0,964957611,0,0,0,0,0,0,-949,0,0
966000611,0,0,0,0,0,0,12035,0,0,966077611,0,0,0,0,0,0,-963,0,0
967120611,0,0,0,0,0,0,12034,0,0,967197611,0,0,0,0,0,0,-963,0,0
968240611,0,0,0,0,0,0,12018,0,0,968317611,0,0,0,0,0,0,-990,0,0
969360611,0,0,0,0,0,0,12017,0,0,969437611,0,0,0,0,0,0,-960,0,0
970480611,0,0,0,0,0,0,12024,0,0,970557611,0,0,0,0,0,0,-985,0,0
971600611,0,0,0,0,0,0,12038,0,0,971677611,0,0,0,0,0,0,278,0,0
972720611,0,0,0,0,0,0,494,0,0,972797611,0,0,0,0,0,0,558,0,0
973840611,0,0,0,0,0,0,461,0,0,973917611,0,0,0,0,0,0,595,0,0
974960611,0,0,0,0,0,0,469,0,0,975037611,0,0,0,0,0,0,589,0,0
976080611,0,0,0,0,0,0,482,0,0,976157611,0,0,0,0,0,0,616,0,0
977200611,0,0,0,0,0,0,507,0,0,977277611,0,0,0,0,0,0,602,0,0
978320611,0,0,0,0,0,0,488,0,0,978397611,0,0,0,0,0,0,552,0,0
979440611,0,0,0,0,0,0,479,0,0,979517611,0,0,0,0,0,0,583,0,0
980560611,0,0,0,0,0,0,496,0,0,980637611,0,0,0,0,0,0,-236,0,0
981680611,0,0,0,0,0,0,12040,0,0,981757611,0,0,0,0,0,0,-946,0,0
982800611,0,0,0,0,0,0,12044,0,0,982877611,0,0,0,0,0,0,-933,0,0
983920611,0,0,0,0,0,0,12017,0,0,983997611,0,0,0,0,0,0,-969,0,0
985040611,0,0,0,0,0,0,12031,0,0,985117611,0,0,0,0,0,0,-942,0,0
986160611,0,0,0,0,0,0,12058,0,0,986237611,0,0,0,0,0,0,-992,0,0
987280611,0,0,0,0,0,0,12038,0,0,987357611,0,0,0,0,0,0,-967,0,0
988400611,0,0,0,0,0,0,12052,0,0,988477611,0,0,0,0,0,0,-976,0,0
989520611,0,0,0,0,0,0,12043,0,0,989597611,0,0,0,0,0,0,-348,0,0
990640611,0,0,0,0,0,0,466,0,0,990717611,0,0,0,0,0,0,533,0,0
991760611,0,0,0,0,0,0,438,0,0,991837611,0,0,0,0,0,0,542,0,0
992880611,0,0,0,0,0,0,519,0,0,992957611,0,0,0,0,0,0,594,0,0
994000611,0,0,0,0,0,0,493,0,0,994077611,0,0,0,0,0,0,569,0,0
995120611,0,0,0,0,0,0,463,0,0,995197611,0,0,0,0,0,0,553,0,0
996240611,0,0,0,0,0,0,452,0,0,996317611,0,0,0,0,0,0,582,0,0
997360611,0,0,0,0,0,0,505,0,0,997437611,0,0,0,0,0,0,580,0,0
998480611,0,0,0,0,0,0,483,0,0,998557611,0,0,0,0,0,0,494,0,0
999600611,0,0,0,0,0,0,12028,0,0,999677611,0,0,0,0,0,0,-956,0,0
1000720611,0,0,0,0,0,0,11995,0,0,1000797611,0,0,0,0,0,0,-957,0,0
1001840611,0,0,0,0,0,0,12072,0,0,1001917611,0,0,0,0,0,0,-940,0,0
1002960611,0,0,0,0,0,0,12054,0,0,1003037611,0,0,0,0,0,0,-922,0,0
1004080611,0,0,0,0,0,0,12022,0,0,1004157611,0,0,0,0,0,0,-1008,0,0
1005200611,0,0,0,0,0,0,12023,0,0,1005277611,0,0,0,0,0,0,-1001,0,0
1006320611,0,0,0,0,0,0,11999,0,0,1006397611,0,0,0,0,0,0,-1032,0,0
1007440611,0,0,0,0,0,0,12044,0,0,1007517611,0,0,0,0,0,0,-1004,0,0
1008560611,0,0,0,0,0,0,483,0,0,1008637611,0,0,0,0,0,0,610,0,0
1009680611,0,0,0,0,0,0,449,0,0,1009757611,0,0,0,0,0,0,582,0,0
1010800611,0,0,0,0,0,0,515,0,0,1010877611,0,0,0,0,0,0,571,0,0
1011920611,0,0,0,0,0,0,469,0,0,1011997611,0,0,0,0,0,0,569,0,0
1013040611,0,0,0,0,0,0,495,0,0,1013117611,0,0,0,0,0,0,571,0,0
1014160611,0,0,0,0,0,0,491,0,0,1014237611,0,0,0,0,0,0,607,0,0
1015280611,0,0,0,0,0,0,451,0,0,1015357611,0,0,0,0,0,0,592,0,0
1016400611,0,0,0,0,0,0,490,0,0,1016477611,0,0,0,0,0,0,549,0,0
1017520611,0,0,0,0,0,0,12025,0,0,1017597611,0,0,0,0,0,0,-943,0,0
1018640611,0,0,0,0,0,0,12028,0,0,1018717611,0,0,0,0,0,0,-945,0,0
1019760611,0,0,0,0,0,0,12051,0,0,1019837611,0,0,0,0,0,0,-965,0,0
1020880611,0,0,0,0,0,0,12012,0,0,1020957611,0,0,0,0,0,0,-1000,0,0
1022000611,0,0,0,0,0,0,12078,0,0,1022077611,0,0,0,0,0,0,-931,0,0
1023120611,0,0,0,0,0,0,12044,0,0,1023197611,0,0,0,0,0,0,-1006,0,0
1024240611,0,0,0,0,0,0,12057,0,0,1024317611,0,0,0,0,0,0,-953,0,0
1025360611,0,0,0,0,0,0,12069,0,0,1025437611,0,0,0,0,0,0,-970,0,0
1026480611,0,0,0,0,0,0,461,0,0,1026557611,0,0,0,0,0,0,605,0,0
1027600611,0,0,0,0,0,0,509,0,0,1027677611,0,0,0,0,0,0,580,0,0
1028720611,0,0,0,0,0,0,450,0,0,1028797611,0,0,0,0,0,0,596,0,0
1029840611,0,0,0,0,0,0,480,0,0,1029917611,0,0,0,0,0,0,569,0,0
1030960611,0,0,0,0,0,0,462,0,0,1031037611,0,0,0,0,0,0,552,0,0
1032080611,0,0,0,0,0,0,428,0,0,1032157611,0,0,0,0,0,0,576,0,0
1033200611,0,0,0,0,0,0,482,0,0,1033277611,0,0,0,0,0,0,543,0,0
1034320611,0,0,0,0,0,0,469,0,0,1034397611,0,0,0,0,0,0,598,0,0
1035440611,0,0,0,0,0,0,12029,0,0,1035517611,0,0,0,0,0,0,-979,0,0
1036560611,0,0,0,0,0,0,12056,0,0,1036637611,0,0,0,0,0,0,-973,0,0
1037680611,0,0,0,0,0,0,12019,0,0,1037757611,0,0,0,0,0,0,-939,0,0
1038800611,0,0,0,0,0,0,12028,0,0,1038877611,0,0,0,0,0,0,-970,0,0
1039920611,0,0,0,0,0,0,12011,0,0,1039997611,0,0,0,0,0,0,-997,0,0
1041040611,0,0,0,0,0,0,12047,0,0,1041117611,0,0,0,0,0,0,-935,0,0
1042160611,0,0,0,0,0,0,12004,0,0,1042237611,0,0,0,0,0,0,-945,0,0
1043280611,0,0,0,0,0,0,12041,0,0,1043357611,0,0,0,0,0,0,-1023,0,0
1044400611,0,0,0,0,0,0,508,0,0,1044477611,0,0,0,0,0,0,570,0,0
1045520611,0,0,0,0,0,0,459,0,0,1045597611,0,0,0,0,0,0,589,0,0
1046640611,0,0,0,0,0,0,475,0,0,1046717611,0,0,0,0,0,0,582,0,0
1047760611,0,0,0,0,0,0,499,0,0,1047837611,0,0,0,0,0,0,595,0,0
1048880611,0,0,0,0,0,0,472,0,0,1048957611,0,0,0,0,0,0,599,0,0
1050000611,0,0,0,0,0,0,474,0,0,1050077611,0,0,0,0,0,0,595,0,0
1051120611,0,0,0,0,0,0,481,0,0,1051197611,0,0,0,0,0,0,574,0,0
1052240611,0,0,0,0,0,0,453,0,0,1052317611,0,0,0,0,0,0,604,0,0
1053360611,0,0,0,0,0,0,12033,0,0,1053437611,0,0,0,0,0,0,-1028,0,0
1054480611,0,0,0,0,0,0,12045,0,0,1054557611,0,0,0,0,0,0,-994,0,0
1055600611,0,0,0,0,0,0,12050,0,0,1055677611,0,0,0,0,0,0,-969,0,0
1056720611,0,0,0,0,0,0,12017,0,0,1056797611,0,0,0,0,0,0,-978,0,0
1057840611,0,0,0,0,0,0,12014,0,0,1057917611,0,0,0,0,0,0,-974,0,0
1058960611,0,0,0,0,0,0,12011,0,0,1059037611,0,0,0,0,0,0,-999,0,0
1060080611,0,0,0,0,0,0,12004,0,0,1060157611,0,0,0,0,0,0,-948,0,0
1061200611,0,0,0,0,0,0,12040,0,0,1061277611,0,0,0,0,0,0,-944,0,0
1062320611,0,0,0,0,0,0,480,0,0,1062397611,0,0,0,0,0,0,599,0,0
1063440611,0,0,0,0,0,0,477,0,0,1063517611,0,0,0,0,0,0,567,0,0
1064560611,0,0,0,0,0,0,519,0,0,1064637611,0,0,0,0,0,0,524,0,0
1065680611,0,0,0,0,0,0,480,0,0,1065757611,0,0,0,0,0,0,561,0,0
1066800611,0,0,0,0,0,0,423,0,0,1066877611,0,0,0,0,0,0,553,0,0
1067920611,0,0,0,0,0,0,484,0,0,1067997611,0,0,0,0,0,0,579,0,0
1069040611,0,0,0,0,0,0,434,0,0,1069117611,0,0,0,0,0,0,609,0,0
1070160611,0,0,0,0,0,0,483,0,0,1070237611,0,0,0,0,0,0,567,0,0
1071280611,0,0,0,0,0,0,12026,0,0,1071357611,0,0,0,0,0,0,-990,0,0
1072400611,0,0,0,0,0,0,12011,0,0,1072477611,0,0,0,0,0,0,-991,0,0
1073520611,0,0,0,0,0,0,12010,0,0,1073597611,0,0,0,0,0,0,-977,0,0
1074640611,0,0,0,0,0,0,12003,0,0,1074717611,0,0,0,0,0,0,-973,0,0
1075760611,0,0,0,0,0,0,12022,0,0,1075837611,0,0,0,0,0,0,-961,0,0
1076880611,0,0,0,0,0,0,12023,0,0,1076957611,0,0,0,0,0,0,-955,0,0
1078000611,0,0,0,0,0,0,12039,0,0,1078077611,0,0,0,0,0,0,-991,0,0
1079120611,0,0,0,0,0,0,12003,0,0,1079197611,0,0,0,0,0,0,-959,0,0
1080240611,0,0,0,0,0,0,510,0,0,1080317611,0,0,0,0,0,0,574,0,0
1081360611,0,0,0,0,0,0,465,0,0,1081437611,0,0,0,0,0,0,558,0,0
1082480611,0,0,0,0,0,0,469,0,0,1082557611,0,0,0,0,0,0,598,0,0
1083600611,0,0,0,0,0,0,495,0,0,1083677611,0,0,0,0,0,0,561,0,0
1084720611,0,0,0,0,0,0,470,0,0,1084797611,0,0,0,0,0,0,586,0,0
1085840611,0,0,0,0,0,0,483,0,0,1085917611,0,0,0,0,0,0,587,0,0
1086960611,0,0,0,0,0,0,453,0,0,1087037611,0,0,0,0,0,0,589,0,0
1088080611,0,0,0,0,0,0,462,0,0,1088157611,0,0,0,0,0,0,582,0,0
1089200611,0,0,0,0,0,0,12060,0,0,1089277611,0,0,0,0,0,0,-1000,0,0
1090320611,0,0,0,0,0,0,12007,0,0,1090397611,0,0,0,0,0,0,-969,0,0
1091440611,0,0,0,0,0,0,12022,0,0,1091517611,0,0,0,0,0,0,-981,0,0
1092560611,0,0,0,0,0,0,11987,0,0,1092637611,0,0,0,0,0,0,-991,0,0
1093680611,0,0,0,0,0,0,12018,0,0,1093757611,0,0,0,0,0,0,-962,0,0
1094800611,0,0,0,0,0,0,12004,0,0,1094877611,0,0,0,0,0,0,-926,0,0
1095920611,0,0,0,0,0,0,12020,0,0,1095997611,0,0,0,0,0,0,-999,0,0
1097040611,0,0,0,0,0,0,12048,0,0,1097117611,0,0,0,0,0,0,-1010,0,0
1098160611,0,0,0,0,0,0,481,0,0,1098237611,0,0,0,0,0,0,590,0,0
1099280611,0,0,0,0,0,0,505,0,0,1099357611,0,0,0,0,0,0,541,0,0
1100400611,0,0,0,0,0,0,490,0,0,1100477611,0,0,0,0,0,0,564,0,0
1101520611,0,0,0,0,0,0,479,0,0,1101597611,0,0,0,0,0,0,570,0,0
1102640611,0,0,0,0,0,0,438,0,0,1102717611,0,0,0,0,0,0,562,0,0
1103760611,0,0,0,0,0,0,444,0,0,1103837611,0,0,0,0,0,0,641,0,0
1104880611,0,0,0,0,0,0,476,0,0,1104957611,0,0,0,0,0,0,600,0,0
1106000611,0,0,0,0,0,0,487,0,0,1106077611,0,0,0,0,0,0,590,0,0
1107120611,0,0,0,0,0,0,11967,0,0,1107197611,0,0,0,0,0,0,-996,0,0
1108240611,0,0,0,0,0,0,11989,0,0,1108317611,0,0,0,0,0,0,-946,0,0
1109360611,0,0,0,0,0,0,11974,0,0,1109437611,0,0,0,0,0,0,-979,0,0
1110480611,0,0,0,0,0,0,12044,0,0,1110557611,0,0,0,0,0,0,-977,0,0
1111600611,0,0,0,0,0,0,11999,0,0,1111677611,0,0,0,0,0,0,-999,0,0
1112720611,0,0,0,0,0,0,11977,0,0,1112797611,0,0,0,0,0,0,-944,0,0
1113840611,0,0,0,0,0,0,11987,0,0,1113917611,0,0,0,0,0,0,-964,0,0
1114960611,0,0,0,0,0,0,12017,0,0,1115037611,0,0,0,0,0,0,-962,0,0
1116080611,0,0,0,0,0,0,510,0,0,1116157611,0,0,0,0,0,0,558,0,0
1117200611,0,0,0,0,0,0,479,0,0,1117277611,0,0,0,0,0,0,577,0,0
1118320611,0,0,0,0,0,0,521,0,0,1118397611,0,0,0,0,0,0,585,0,0
1119440611,0,0,0,0,0,0,458,0,0,1119517611,0,0,0,0,0,0,563,0,0
1120560611,0,0,0,0,0,0,487,0,0,1120637611,0,0,0,0,0,0,543,0,0
1121680611,0,0,0,0,0,0,485,0,0,1121757611,0,0,0,0,0,0,563,0,0
1122800611,0,0,0,0,0,0,491,0,0,1122877611,0,0,0,0,0,0,598,0,0
1123920611,0,0,0,0,0,0,526,0,0,1123997611,0,0,0,0,0,0,606,0,0
1125040611,0,0,0,0,0,0,12036,0,0,1125117611,0,0,0,0,0,0,-983,0,0
1126160611,0,0,0,0,0,0,12030,0,0,1126237611,0,0,0,0,0,0,-995,0,0
1127280611,0,0,0,0,0,0,12033,0,0,1127357611,0,0,0,0,0,0,-972,0,0
1128400611,0,0,0,0,0,0,12013,0,0,1128477611,0,0,0,0,0,0,-941,0,0
1129520611,0,0,0,0,0,0,11975,0,0,1129597611,0,0,0,0,0,0,-988,0,0
1130640611,0,0,0,0,0,0,11991,0,0,1130717611,0,0,0,0,0,0,-998,0,0
1131760611,0,0,0,0,0,0,11992,0,0,1131837611,0,0,0,0,0,0,-1024,0,0
1132880611,0,0,0,0,0,0,12015,0,0,1132957611,0,0,0,0,0,0,-965,0,0
1134000611,0,0,0,0,0,0,481,0,0,1134077611,0,0,0,0,0,0,591,0,0
1135120611,0,0,0,0,0,0,465,0,0,1135197611,0,0,0,0,0,0,610,0,0
1136240611,0,0,0,0,0,0,503,0,0,1136317611,0,0,0,0,0,0,588,0,0
1137360611,0,0,0,0,0,0,433,0,0,1137437611,0,0,0,0,0,0,587,0,0
1138480611,0,0,0,0,0,0,453,0,0,1138557611,0,0,0,0,0,0,549,0,0
1139600611,0,0,0,0,0,0,455,0,0,1139677611,0,0,0,0,0,0,597,0,0
1140720611,0,0,0,0,0,0,492,0,0,1140797611,0,0,0,0,0,0,548,0,0
1141840611,0,0,0,0,0,0,466,0,0,1141917611,0,0,0,0,0,0,621,0,0
1142960611,0,0,0,0,0,0,12006,0,0,1143037611,0,0,0,0,0,0,-956,0,0
1144080611,0,0,0,0,0,0,12018,0,0,1144157611,0,0,0,0,0,0,-950,0,0
1145200611,0,0,0,0,0,0,11988,0,0,1145277611,0,0,0,0,0,0,-996,0,0
1146320611,0,0,0,0,0,0,12021,0,0,1146397611,0,0,0,0,0,0,-963,0,0
1147440611,0,0,0,0,0,0,11976,0,0,1147517611,0,0,0,0,0,0,-973,0,0
1148560611,0,0,0,0,0,0,12000,0,0,1148637611,0,0,0,0,0,0,-981,0,0
1149680611,0,0,0,0,0,0,12023,0,0,1149757611,0,0,0,0,0,0,-948,0,0
1150800611,0,0,0,0,0,0,12011,0,0,1150877611,0,0,0,0,0,0,-960,0,0
1151920611,0,0,0,0,0,0,543,0,0,1151997611,0,0,0,0,0,0,615,0,0
1153040611,0,0,0,0,0,0,463,0,0,1153117611,0,0,0,0,0,0,581,0,0
1154160611,0,0,0,0,0,0,526,0,0,1154237611,0,0,0,0,0,0,565,0,0
1155280611,0,0,0,0,0,0,503,0,0,1155357611,0,0,0,0,0,0,602,0,0
1156400611,0,0,0,0,0,0,445,0,0,1156477611,0,0,0,0,0,0,600,0,0
1157520611,0,0,0,0,0,0,447,0,0,1157597611,0,0,0,0,0,0,574,0,0
1158640611,0,0,0,0,0,0,493,0,0,1158717611,0,0,0,0,0,0,577,0,0
1159760611,0,0,0,0,0,0,483,0,0,1159837611,0,0,0,0,0,0,588,0,0
1160880611,0,0,0,0,0,0,12012,0,0,1160957611,0,0,0,0,0,0,-987,0,0
1162000611,0,0,0,0,0,0,12034,0,0,1162077611,0,0,0,0,0,0,-1032,0,0
1163120611,0,0,0,0,0,0,12015,0,0,1163197611,0,0,0,0,0,0,-956,0,0
1164240611,0,0,0,0,0,0,12056,0,0,1164317611,0,0,0,0,0,0,-975,0,0
1165360611,0,0,0,0,0,0,12032,0,0,1165437611,0,0,0,0,0,0,-963,0,0
1166480611,0,0,0,0,0,0,11990,0,0,1166557611,0,0,0,0,0,0,-1003,0,0
1167600611,0,0,0,0,0,0,11998,0,0,1167677611,0,0,0,0,0,0,-957,0,0
1168720611,0,0,0,0,0,0,12008,0,0,1168797611,0,0,0,0,0,0,-955,0,0
1169840611,0,0,0,0,0,0,452,0,0,1169917611,0,0,0,0,0,0,616,0,0
1170960611,0,0,0,0,0,0,475,0,0,1171037611,0,0,0,0,0,0,569,0,0
1172080611,0,0,0,0,0,0,483,0,0,1172157611,0,0,0,0,0,0,555,0,0
1173200611,0,0,0,0,0,0,484,0,0,1173277611,0,0,0,0,0,0,598,0,0
1174320611,0,0,0,0,0,0,475,0,0,1174397611,0,0,0,0,0,0,535,0,0
1175440611,0,0,0,0,0,0,458,0,0,1175517611,0,0,0,0,0,0,542,0,0
1176560611,0,0,0,0,0,0,495,0,0,1176637611,0,0,0,0,0,0,551,0,0
1177680611,0,0,0,0,0,0,466,0,0,1177757611,0,0,0,0,0,0,582,0,0
1178800611,0,0,0,0,0,0,12025,0,0,1178877611,0,0,0,0,0,0,-967,0,0
1179920611,0,0,0,0,0,0,12048,0,0,1179997611,0,0,0,0,0,0,-945,0,0
1181040611,0,0,0,0,0,0,11999,0,0,1181117611,0,0,0,0,0,0,-951,0,0
1182160611,0,0,0,0,0,0,12001,0,0,1182237611,0,0,0,0,0,0,-982,0,0
1183280611,0,0,0,0,0,0,12067,0,0,1183357611,0,0,0,0,0,0,-1026,0,0
1184400611,0,0,0,0,0,0,12000,0,0,1184477611,0,0,0,0,0,0,-966,0,0
1185520611,0,0,0,0,0,0,12022,0,0,1185597611,0,0,0,0,0,0,-1006,0,0
1186640611,0,0,0,0,0,0,11975,0,0,1186717611,0,0,0,0,0,0,-996,0,0
1187760611,0,0,0,0,0,0,495,0,0,1187837611,0,0,0,0,0,0,573,0,0
1188880611,0,0,0,0,0,0,477,0,0,1188957611,0,0,0,0,0,0,606,0,0
1190000611,0,0,0,0,0,0,473,0,0,1190077611,0,0,0,0,0,0,563,0,0
1191120611,0,0,0,0,0,0,492,0,0,1191197611,0,0,0,0,0,0,551,0,0
1192240611,0,0,0,0,0,0,467,0,0,1192317611,0,0,0,0,0,0,585,0,0
1193360611,0,0,0,0,0,0,518,0,0,1193437611,0,0,0,0,0,0,571,0,0
1194480611,0,0,0,0,0,0,494,0,0,1194557611,0,0,0,0,0,0,589,0,0
1195600611,0,0,0,0,0,0,492,0,0,1195677611,0,0,0,0,0,0,612,0,0
1196720611,0,0,0,0,0,0,12067,0,0,1196797611,0,0,0,0,0,0,-951,0,0
1197840611,0,0,0,0,0,0,11995,0,0,1197917611,0,0,0,0,0,0,-964,0,0
1198960611,0,0,0,0,0,0,12005,0,0,1199037611,0,0,0,0,0,0,-1016,0,0
1200080611,0,0,0,0,0,0,11980,0,0,1200157611,0,0,0,0,0,0,-1003,0,0
1201200611,0,0,0,0,0,0,12040,0,0,1201277611,0,0,0,0,0,0,-948,0,0
1202320611,0,0,0,0,0,0,11958,0,0,1202397611,0,0,0,0,0,0,-958,0,0
1203440611,0,0,0,0,0,0,12011,0,0,1203517611,0,0,0,0,0,0,-995,0,0
1204560611,0,0,0,0,0,0,11969,0,0,1204637611,0,0,0,0,0,0,-975,0,0
1205680611,0,0,0,0,0,0,476,0,0,1205757611,0,0,0,0,0,0,583,0,0
1206800611,0,0,0,0,0,0,474,0,0,1206877611,0,0,0,0,0,0,574,0,0
1207920611,0,0,0,0,0,0,472,0,0,1207997611,0,0,0,0,0,0,580,0,0
1209040611,0,0,0,0,0,0,469,0,0,1209117611,0,0,0,0,0,0,534,0,0
1210160611,0,0,0,0,0,0,471,0,0,1210237611,0,0,0,0,0,0,571,0,0
1211280611,0,0,0,0,0,0,479,0,0,1211357611,0,0,0,0,0,0,617,0,0
1212400611,0,0,0,0,0,0,500,0,0,1212477611,0,0,0,0,0,0,550,0,0
1213520611,0,0,0,0,0,0,469,0,0,1213597611,0,0,0,0,0,0,567,0,0
1214640611,0,0,0,0,0,0,12038,0,0,1214717611,0,0,0,0,0,0,-968,0,0
1215760611,0,0,0,0,0,0,12018,0,0,1215837611,0,0,0,0,0,0,-1010,0,0
1216880611,0,0,0,0,0,0,12014,0,0,1216957611,0,0,0,0,0,0,-1011,0,0
1218000611,0,0,0,0,0,0,12018,0,0,1218077611,0,0,0,0,0,0,-972,0,0
1219120611,0,0,0,0,0,0,11978,0,0,1219197611,0,0,0,0,0,0,-982,0,0
1220240611,0,0,0,0,0,0,12001,0,0,1220317611,0,0,0,0,0,0,-980,0,0
1221360611,0,0,0,0,0,0,11984,0,0,1221437611,0,0,0,0,0,0,-965,0,0
1222480611,0,0,0,0,0,0,12033,0,0,1222557611,0,0,0,0,0,0,-919,0,0
1223600611,0,0,0,0,0,0,465,0,0,1223677611,0,0,0,0,0,0,598,0,0
1224720611,0,0,0,0,0,0,488,0,0,1224797611,0,0,0,0,0,0,547,0,0
1225840611,0,0,0,0,0,0,475,0,0,1225917611,0,0,0,0,0,0,545,0,0
1226960611,0,0,0,0,0,0,500,0,0,1227037611,0,0,0,0,0,0,523,0,0
1228080611,0,0,0,0,0,0,454,0,0,1228157611,0,0,0,0,0,0,586,0,0
1229200611,0,0,0,0,0,0,481,0,0,1229277611,0,0,0,0,0,0,650,0,0
1230320611,0,0,0,0,0,0,454,0,0,1230397611,0,0,0,0,0,0,596,0,0
1231440611,0,0,0,0,0,0,500,0,0,1231517611,0,0,0,0,0,0,547,0,0
1232560611,0,0,0,0,0,0,12013,0,0,1232637611,0,0,0,0,0,0,-955,0,0
1233680611,0,0,0,0,0,0,11974,0,0,1233757611,0,0,0,0,0,0,-929,0,0
1234800611,0,0,0,0,0,0,12008,0,0,1234877611,0,0,0,0,0,0,-971,0,0
1235920611,0,0,0,0,0,0,11979,0,0,1235997611,0,0,0,0,0,0,-965,0,0
1237040611,0,0,0,0,0,0,12000,0,0,1237117611,0,0,0,0,0,0,-952,0,0
1238160611,0,0,0,0,0,0,11982,0,0,1238237611,0,0,0,0,0,0,-977,0,0
1239280611,0,0,0,0,0,0,12025,0,0,1239357611,0,0,0,0,0,0,-976,0,0
1240400611,0,0,0,0,0,0,12003,0,0,1240477611,0,0,0,0,0,0,-971,0,0
1241520611,0,0,0,0,0,0,517,0,0,1241597611,0,0,0,0,0,0,573,0,0
1242640611,0,0,0,0,0,0,490,0,0,1242717611,0,0,0,0,0,0,530,0,0
1243760611,0,0,0,0,0,0,500,0,0,1243837611,0,0,0,0,0,0,616,0,0
1244880611,0,0,0,0,0,0,481,0,0,1244957611,0,0,0,0,0,0,605,0,0
1246000611,0,0,0,0,0,0,499,0,0,1246077611,0,0,0,0,0,0,531,0,0
1247120611,0,0,0,0,0,0,459,0,0,1247197611,0,0,0,0,0,0,564,0,0
1248240611,0,0,0,0,0,0,401,0,0,1248317611,0,0,0,0,0,0,539,0,0
1249360611,0,0,0,0,0,0,457,0,0,1249437611,0,0,0,0,0,0,627,0,0
1250480611,0,0,0,0,0,0,11989,0,0,1250557611,0,0,0,0,0,0,-983,0,0
1251600611,0,0,0,0,0,0,11974,0,0,1251677611,0,0,0,0,0,0,-947,0,0
1252720611,0,0,0,0,0,0,11976,0,0,1252797611,0,0,0,0,0,0,-970,0,0
1253840611,0,0,0,0,0,0,11999,0,0,1253917611,0,0,0,0,0,0,-902,0,0
1254960611,0,0,0,0,0,0,11973,0,0,1255037611,0,0,0,0,0,0,-970,0,0
1256080611,0,0,0,0,0,0,11973,0,0,1256157611,0,0,0,0,0,0,-981,0,0
1257200611,0,0,0,0,0,0,11985,0,0,1257277611,0,0,0,0,0,0,-961,0,0
1258320611,0,0,0,0,0,0,12028,0,0,1258397611,0,0,0,0,0,0,-983,0,0
1259440611,0,0,0,0,0,0,516,0,0,1259517611,0,0,0,0,0,0,587,0,0
1260560611,0,0,0,0,0,0,475,0,0,1260637611,0,0,0,0,0,0,567,0,0
1261680611,0,0,0,0,0,0,483,0,0,1261757611,0,0,0,0,0,0,545,0,0
1262800611,0,0,0,0,0,0,521,0,0,1262877611,0,0,0,0,0,0,621,0,0
1263920611,0,0,0,0,0,0,512,0,0,1263997611,0,0,0,0,0,0,596,0,0
1265040611,0,0,0,0,0,0,432,0,0,1265117611,0,0,0,0,0,0,578,0,0
1266160611,0,0,0,0,0,0,454,0,0,1266237611,0,0,0,0,0,0,543,0,0
1267280611,0,0,0,0,0,0,485,0,0,1267357611,0,0,0,0,0,0,601,0,0
1268400611,0,0,0,0,0,0,12021,0,0,1268477611,0,0,0,0,0,0,-969,0,0
1269520611,0,0,0,0,0,0,11975,0,0,1269597611,0,0,0,0,0,0,-918,0,0
1270640611,0,0,0,0,0,0,11988,0,0,1270717611,0,0,0,0,0,0,-973,0,0
1271760611,0,0,0,0,0,0,12013,0,0,1271837611,0,0,0,0,0,0,-943,0,0
1272880611,0,0,0,0,0,0,11994,0,0,1272957611,0,0,0,0,0,0,-965,0,0
1274000611,0,0,0,0,0,0,12009,0,0,1274077611,0,0,0,0,0,0,-995,0,0
1275120611,0,0,0,0,0,0,12019,0,0,1275197611,0,0,0,0,0,0,-952,0,0
1276240611,0,0,0,0,0,0,12007,0,0,1276317611,0,0,0,0,0,0,-992,0,0
1277360611,0,0,0,0,0,0,499,0,0,1277437611,0,0,0,0,0,0,565,0,0
1278480611,0,0,0,0,0,0,474,0,0,1278557611,0,0,0,0,0,0,566,0,0
1279600611,0,0,0,0,0,0,448,0,0,1279677611,0,0,0,0,0,0,561,0,0
1280720611,0,0,0,0,0,0,443,0,0,1280797611,0,0,0,0,0,0,561,0,0
1281840611,0,0,0,0,0,0,442,0,0,1281917611,0,0,0,0,0,0,618,0,0
1282960611,0,0,0,0,0,0,458,0,0,1283037611,0,0,0,0,0,0,570,0,0
1284080611,0,0,0,0,0,0,492,0,0,1284157611,0,0,0,0,0,0,590,0,0
1285200611,0,0,0,0,0,0,481,0,0,1285277611,0,0,0,0,0,0,560,0,0
1286320611,0,0,0,0,0,0,11998,0,0,1286397611,0,0,0,0,0,0,-983,0,0
1287440611,0,0,0,0,0,0,12001,0,0,1287517611,0,0,0,0,0,0,-965,0,0
1288560611,0,0,0,0,0,0,11965,0,0,1288637611,0,0,0,0,0,0,-961,0,0
1289680611,0,0,0,0,0,0,12026,0,0,1289757611,0,0,0,0,0,0,-960,0,0
1290800611,0,0,0,0,0,0,11995,0,0,1290877611,0,0,0,0,0,0,-970,0,0
1291920611,0,0,0,0,0,0,11997,0,0,1291997611,0,0,0,0,0,0,-960,0,0
1293040611,0,0,0,0,0,0,11974,0,0,1293117611,0,0,0,0,0,0,-956,0,0
1294160611,0,0,0,0,0,0,12032,0,0,1294237611,0,0,0,0,0,0,-931,0,0
1295280611,0,0,0,0,0,0,466,0,0,1295357611,0,0,0,0,0,0,588,0,0
1296400611,0,0,0,0,0,0,414,0,0,1296477611,0,0,0,0,0,0,574,0,0
1297520611,0,0,0,0,0,0,491,0,0,1297597611,0,0,0,0,0,0,560,0,0
1298640611,0,0,0,0,0,0,540,0,0,1298717611,0,0,0,0,0,0,614,0,0
1299760611,0,0,0,0,0,0,473,0,0,1299837611,0,0,0,0,0,0,581,0,0
1300880611,0,0,0,0,0,0,460,0,0,1300957611,0,0,0,0,0,0,571,0,0
1302000611,0,0,0,0,0,0,514,0,0,1302077611,0,0,0,0,0,0,543,0,0
1303120611,0,0,0,0,0,0,442,0,0,1303197611,0,0,0,0,0,0,557,0,0
1304240611,0,0,0,0,0,0,11968,0,0,1304317611,0,0,0,0,0,0,-969,0,0
1305360611,0,0,0,0,0,0,11969,0,0,1305437611,0,0,0,0,0,0,-966,0,0
1306480611,0,0,0,0,0,0,12035,0,0,1306557611,0,0,0,0,0,0,-979,0,0
1307600611,0,0,0,0,0,0,11952,0,0,1307677611,0,0,0,0,0,0,-962,0,0
1308720611,0,0,0,0,0,0,12001,0,0,1308797611,0,0,0,0,0,0,-960,0,0
1309840611,0,0,0,0,0,0,12003,0,0,1309917611,0,0,0,0,0,0,-1014,0,0
1310960611,0,0,0,0,0,0,12017,0,0,1311037611,0,0,0,0,0,0,-965,0,0
1312080611,0,0,0,0,0,0,11988,0,0,1312157611,0,0,0,0,0,0,-950,0,0
1313200611,0,0,0,0,0,0,457,0,0,1313277611,0,0,0,0,0,0,564,0,0
1314320611,0,0,0,0,0,0,469,0,0,1314397611,0,0,0,0,0,0,564,0,0
1315440611,0,0,0,0,0,0,453,0,0,1315517611,0,0,0,0,0,0,567,0,0
1316560611,0,0,0,0,0,0,503,0,0,1316637611,0,0,0,0,0,0,560,0,0
1317680611,0,0,0,0,0,0,503,0,0,1317757611,0,0,0,0,0,0,609,0,0
1318800611,0,0,0,0,0,0,451,0,0,1318877611,0,0,0,0,0,0,585,0,0
1319920611,0,0,0,0,0,0,463,0,0,1319997611,0,0,0,0,0,0,589,0,0
1321040611,0,0,0,0,0,0,474,0,0,1321117611,0,0,0,0,0,0,630,0,0
1322160611,0,0,0,0,0,0,12015,0,0,1322237611,0,0,0,0,0,0,-980,0,0
1323280611,0,0,0,0,0,0,11995,0,0,1323357611,0,0,0,0,0,0,-972,0,0
1324400611,0,0,0,0,0,0,11938,0,0,1324477611,0,0,0,0,0,0,-934,0,0
1325520611,0,0,0,0,0,0,11991,0,0,1325597611,0,0,0,0,0,0,-980,0,0
1326640611,0,0,0,0,0,0,11978,0,0,1326717611,0,0,0,0,0,0,-961,0,0
1327760611,0,0,0,0,0,0,11979,0,0,1327837611,0,0,0,0,0,0,-974,0,0
1328880611,0,0,0,0,0,0,11941,0,0,1328957611,0,0,0,0,0,0,-976,0,0
1330000611,0,0,0,0,0,0,11959,0,0,1330077611,0,0,0,0,0,0,-986,0,0
1331120611,0,0,0,0,0,0,452,0,0,1331197611,0,0,0,0,0,0,610,0,0
1332240611,0,0,0,0,0,0,487,0,0,1332317611,0,0,0,0,0,0,576,0,0
1333360611,0,0,0,0,0,0,443,0,0,1333437611,0,0,0,0,0,0,575,0,0
1334480611,0,0,0,0,0,0,489,0,0,1334557611,0,0,0,0,0,0,555,0,0
1335600611,0,0,0,0,0,0,460,0,0,1335677611,0,0,0,0,0,0,601,0,0
1336720611,0,0,0,0,0,0,462,0,0,1336797611,0,0,0,0,0,0,568,0,0
1337840611,0,0,0,0,0,0,514,0,0,1337917611,0,0,0,0,0,0,553,0,0
1338960611,0,0,0,0,0,0,490,0,0,1339037611,0,0,0,0,0,0,600,0,0
1340080611,0,0,0,0,0,0,12017,0,0,1340157611,0,0,0,0,0,0,-1017,0,0
1341200611,0,0,0,0,0,0,11991,0,0,1341277611,0,0,0,0,0,0,-1018,0,0
1342320611,0,0,0,0,0,0,12056,0,0,1342397611,0,0,0,0,0,0,-947,0,0
1343440611,0,0,0,0,0,0,11980,0,0,1343517611,0,0,0,0,0,0,-983,0,0
1344560611,0,0,0,0,0,0,11987,0,0,1344637611,0,0,0,0,0,0,-1008,0,0
1345680611,0,0,0,0,0,0,12000,0,0,1345757611,0,0,0,0,0,0,-952,0,0
1346800611,0,0,0,0,0,0,12010,0,0,1346877611,0,0,0,0,0,0,-1036,0,0
1347920611,0,0,0,0,0,0,12027,0,0,1347997611,0,0,0,0,0,0,-936,0,0
1349040611,0,0,0,0,0,0,447,0,0,1349117611,0,0,0,0,0,0,588,0,0
1350160611,0,0,0,0,0,0,504,0,0,1350237611,0,0,0,0,0,0,585,0,0
1351280611,0,0,0,0,0,0,457,0,0,1351357611,0,0,0,0,0,0,617,0,0
1352400611,0,0,0,0,0,0,485,0,0,1352477611,0,0,0,0,0,0,608,0,0
1353520611,0,0,0,0,0,0,475,0,0,1353597611,0,0,0,0,0,0,557,0,0
1354640611,0,0,0,0,0,0,468,0,0,1354717611,0,0,0,0,0,0,547,0,0
1355760611,0,0,0,0,0,0,492,0,0,1355837611,0,0,0,0,0,0,555,0,0
1356880611,0,0,0,0,0,0,448,0,0,1356957611,0,0,0,0,0,0,624,0,0
1358000611,0,0,0,0,0,0,11962,0,0,1358077611,0,0,0,0,0,0,-962,0,0
1359120611,0,0,0,0,0,0,11946,0,0,1359197611,0,0,0,0,0,0,-969,0,0
1360240611,0,0,0,0,0,0,12004,0,0,1360317611,0,0,0,0,0,0,-987,0,0
1361360611,0,0,0,0,0,0,11960,0,0,1361437611,0,0,0,0,0,0,-982,0,0
1362480611,0,0,0,0,0,0,11943,0,0,1362557611,0,0,0,0,0,0,-970,0,0
1363600611,0,0,0,0,0,0,11968,0,0,1363677611,0,0,0,0,0,0,-941,0,0
1364720611,0,0,0,0,0,0,11976,0,0,1364797611,0,0,0,0,0,0,-956,0,0
1365840611,0,0,0,0,0,0,11944,0,0,1365917611,0,0,0,0,0,0,-991,0,0
1366960611,0,0,0,0,0,0,425,0,0,1367037611,0,0,0,0,0,0,578,0,0
1368080611,0,0,0,0,0,0,437,0,0,1368157611,0,0,0,0,0,0,614,0,0
1369200611,0,0,0,0,0,0,488,0,0,1369277611,0,0,0,0,0,0,558,0,0
1370320611,0,0,0,0,0,0,476,0,0,1370397611,0,0,0,0,0,0,598,0,0
1371440611,0,0,0,0,0,0,454,0,0,1371517611,0,0,0,0,0,0,572,0,0
1372560611,0,0,0,0,0,0,454,0,0,1372637611,0,0,0,0,0,0,560,0,0
1373680611,0,0,0,0,0,0,509,0,0,1373757611,0,0,0,0,0,0,595,0,0
1374800611,0,0,0,0,0,0,440,0,0,1374877611,0,0,0,0,0,0,586,0,0
1375920611,0,0,0,0,0,0,11987,0,0,1375997611,0,0,0,0,0,0,-985,0,0
1377040611,0,0,0,0,0,0,12051,0,0,1377117611,0,0,0,0,0,0,-904,0,0
1378160611,0,0,0,0,0,0,12025,0,0,1378237611,0,0,0,0,0,0,-988,0,0
1379280611,0,0,0,0,0,0,11939,0,0,1379357611,0,0,0,0,0,0,-993,0,0
1380400611,0,0,0,0,0,0,11996,0,0,1380477611,0,0,0,0,0,0,-930,0,0
1381520611,0,0,0,0,0,0,12005,0,0,1381597611,0,0,0,0,0,0,-963,0,0
1382640611,0,0,0,0,0,0,11959,0,0,1382717611,0,0,0,0,0,0,-995,0,0
1383760611,0,0,0,0,0,0,11964,0,0,1383837611,0,0,0,0,0,0,-984,0,0
1384880611,0,0,0,0,0,0,463,0,0,1384957611,0,0,0,0,0,0,593,0,0
1386000611,0,0,0,0,0,0,514,0,0,1386077611,0,0,0,0,0,0,556,0,0
1387120611,0,0,0,0,0,0,422,0,0,1387197611,0,0,0,0,0,0,607,0,0
1388240611,0,0,0,0,0,0,511,0,0,1388317611,0,0,0,0,0,0,559,0,0
1389360611,0,0,0,0,0,0,488,0,0,1389437611,0,0,0,0,0,0,580,0,0
1390480611,0,0,0,0,0,0,508,0,0,1390557611,0,0,0,0,0,0,601,0,0
1391600611,0,0,0,0,0,0,446,0,0,1391677611,0,0,0,0,0,0,604,0,0
1392720611,0,0,0,0,0,0,483,0,0,1392797611,0,0,0,0,0,0,579,0,0
1393840611,0,0,0,0,0,0,11995,0,0,1393917611,0,0,0,0,0,0,-980,0,0
1394960611,0,0,0,0,0,0,11986,0,0,1395037611,0,0,0,0,0,0,-954,0,0
1396080611,0,0,0,0,0,0,11964,0,0,1396157611,0,0,0,0,0,0,-985,0,0
1397200611,0,0,0,0,0,0,12010,0,0,1397277611,0,0,0,0,0,0,-978,0,0
1398320611,0,0,0,0,0,0,11974,0,0,1398397611,0,0,0,0,0,0,-956,0,0
1399440611,0,0,0,0,0,0,12049,0,0,1399517611,0,0,0,0,0,0,-969,0,0
1400560611,0,0,0,0,0,0,11942,0,0,1400637611,0,0,0,0,0,0,-955,0,0
1401680611,0,0,0,0,0,0,12038,0,0,1401757611,0,0,0,0,0,0,-973,0,0
1402800611,0,0,0,0,0,0,451,0,0,1402877611,0,0,0,0,0,0,601,0,0
1403920611,0,0,0,0,0,0,451,0,0,1403997611,0,0,0,0,0,0,579,0,0
1405040611,0,0,0,0,0,0,486,0,0,1405117611,0,0,0,0,0,0,552,0,0
1406160611,0,0,0,0,0,0,478,0,0,1406237611,0,0,0,0,0,0,563,0,0
1407280611,0,0,0,0,0,0,451,0,0,1407357611,0,0,0,0,0,0,549,0,0
1408400611,0,0,0,0,0,0,529,0,0,1408477611,0,0,0,0,0,0,551,0,0
1409520611,0,0,0,0,0,0,475,0,0,1409597611,0,0,0,0,0,0,594,0,0
1410640611,0,0,0,0,0,0,490,0,0,1410717611,0,0,0,0,0,0,585,0,0
1411760611,0,0,0,0,0,0,11962,0,0,1411837611,0,0,0,0,0,0,-988,0,0
1412880611,0,0,0,0,0,0,12013,0,0,1412957611,0,0,0,0,0,0,-970,0,0
1414000611,0,0,0,0,0,0,12025,0,0,1414077611,0,0,0,0,0,0,-959,0,0
1415120611,0,0,0,0,0,0,11951,0,0,1415197611,0,0,0,0,0,0,-953,0,0
1416240611,0,0,0,0,0,0,11984,0,0,1416317611,0,0,0,0,0,0,-1002,0,0
1417360611,0,0,0,0,0,0,11964,0,0,1417437611,0,0,0,0,0,0,-1010,0,0
1418480611,0,0,0,0,0,0,11951,0,0,1418557611,0,0,0,0,0,0,-946,0,0
1419600611,0,0,0,0,0,0,12034,0,0,1419677611,0,0,0,0,0,0,-957,0,0
1420720611,0,0,0,0,0,0,491,0,0,1420797611,0,0,0,0,0,0,572,0,0
1421840611,0,0,0,0,0,0,450,0,0,1421917611,0,0,0,0,0,0,555,0,0
1422960611,0,0,0,0,0,0,469,0,0,1423037611,0,0,0,0,0,0,571,0,0
1424080611,0,0,0,0,0,0,499,0,0,1424157611,0,0,0,0,0,0,558,0,0
1425200611,0,0,0,0,0,0,469,0,0,1425277611,0,0,0,0,0,0,611,0,0
1426320611,0,0,0,0,0,0,449,0,0,1426397611,0,0,0,0,0,0,564,0,0
1427440611,0,0,0,0,0,0,439,0,0,1427517611,0,0,0,0,0,0,577,0,0
1428560611,0,0,0,0,0,0,472,0,0,1428637611,0,0,0,0,0,0,552,0,0
1429680611,0,0,0,0,0,0,11946,0,0,1429757611,0,0,0,0,0,0,-1006,0,0
1430800611,0,0,0,0,0,0,11977,0,0,1430877611,0,0,0,0,0,0,-948,0,0
1431920611,0,0,0,0,0,0,11994,0,0,1431997611,0,0,0,0,0,0,-991,0,0
1433040611,0,0,0,0,0,0,12032,0,0,1433117611,0,0,0,0,0,0,-955,0,0
1434160611,0,0,0,0,0,0,12010,0,0,1434237611,0,0,0,0,0,0,-960,0,0
1435280611,0,0,0,0,0,0,11984,0,0,1435357611,0,0,0,0,0,0,-936,0,0
1436400611,0,0,0,0,0,0,11995,0,0,1436477611,0,0,0,0,0,0,-1008,0,0
1437520611,0,0,0,0,0,0,11944,0,0,1437597611,0,0,0,0,0,0,-959,0,0
1438640611,0,0,0,0,0,0,455,0,0,1438717611,0,0,0,0,0,0,577,0,0
1439760611,0,0,0,0,0,0,487,0,0,1439837611,0,0,0,0,0,0,571,0,0
1440880611,0,0,0,0,0,0,478,0,0,1440957611,0,0,0,0,0,0,570,0,0
1442000611,0,0,0,0,0,0,502,0,0,1442077611,0,0,0,0,0,0,589,0,0
1443120611,0,0,0,0,0,0,478,0,0,1443197611,0,0,0,0,0,0,597,0,0
1444240611,0,0,0,0,0,0,464,0,0,1444317611,0,0,0,0,0,0,596,0,0
1445360611,0,0,0,0,0,0,487,0,0,1445437611,0,0,0,0,0,0,603,0,0
1446480611,0,0,0,0,0,0,466,0,0,1446557611,0,0,0,0,0,0,578,0,0
1447600611,0,0,0,0,0,0,11989,0,0,1447677611,0,0,0,0,0,0,-1003,0,0
1448720611,0,0,0,0,0,0,11966,0,0,1448797611,0,0,0,0,0,0,-953,0,0
1449840611,0,0,0,0,0,0,11916,0,0,1449917611,0,0,0,0,0,0,-924,0,0
1450960611,0,0,0,0,0,0,12004,0,0,1451037611,0,0,0,0,0,0,-961,0,0
1452080611,0,0,0,0,0,0,11996,0,0,1452157611,0,0,0,0,0,0,-984,0,0
1453200611,0,0,0,0,0,0,11973,0,0,1453277611,0,0,0,0,0,0,-962,0,0
1454320611,0,0,0,0,0,0,11981,0,0,1454397611,0,0,0,0,0,0,-983,0,0
1455440611,0,0,0,0,0,0,12004,0,0,1455517611,0,0,0,0,0,0,-958,0,0
1456560611,0,0,0,0,0,0,487,0,0,1456637611,0,0,0,0,0,0,553,0,0
1457680611,0,0,0,0,0,0,476,0,0,1457757611,0,0,0,0,0,0,553,0,0
1458800611,0,0,0,0,0,0,468,0,0,1458877611,0,0,0,0,0,0,555,0,0
1459920611,0,0,0,0,0,0,419,0,0,1459997611,0,0,0,0,0,0,572,0,0
1461040611,0,0,0,0,0,0,485,0,0,1461117611,0,0,0,0,0,0,588,0,0
1462160611,0,0,0,0,0,0,454,0,0,1462237611,0,0,0,0,0,0,570,0,0
1463280611,0,0,0,0,0,0,474,0,0,1463357611,0,0,0,0,0,0,541,0,0
1464400611,0,0,0,0,0,0,437,0,0,1464477611,0,0,0,0,0,0,558,0,0
1465520611,0,0,0,0,0,0,11936,0,0,1465597611,0,0,0,0,0,0,-962,0,0
1466640611,0,0,0,0,0,0,11981,0,0,1466717611,0,0,0,0,0,0,-1002,0,0
1467760611,0,0,0,0,0,0,11964,0,0,1467837611,0,0,0,0,0,0,-969,0,0
1468880611,0,0,0,0,0,0,11960,0,0,1468957611,0,0,0,0,0,0,-989,0,0
1470000611,0,0,0,0,0,0,12005,0,0,1470077611,0,0,0,0,0,0,-968,0,0
1471120611,0,0,0,0,0,0,11971,0,0,1471197611,0,0,0,0,0,0,-965,0,0
1472240611,0,0,0,0,0,0,11926,0,0,1472317611,0,0,0,0,0,0,-921,0,0
1473360611,0,0,0,0,0,0,12016,0,0,1473437611,0,0,0,0,0,0,-954,0,0
1474480611,0,0,0,0,0,0,458,0,0,1474557611,0,0,0,0,0,0,595,0,0
1475600611,0,0,0,0,0,0,448,0,0,1475677611,0,0,0,0,0,0,603,0,0
1476720611,0,0,0,0,0,0,484,0,0,1476797611,0,0,0,0,0,0,593,0,0
1477840611,0,0,0,0,0,0,472,0,0,1477917611,0,0,0,0,0,0,585,0,0
1478960611,0,0,0,0,0,0,465,0,0,1479037611,0,0,0,0,0,0,616,0,0
1480080611,0,0,0,0,0,0,455,0,0,1480157611,0,0,0,0,0,0,615,0,0
1481200611,0,0,0,0,0,0,488,0,0,1481277611,0,0,0,0,0,0,541,0,0
1482320611,0,0,0,0,0,0,436,0,0,1482397611,0,0,0,0,0,0,608,0,0
1483440611,0,0,0,0,0,0,11941,0,0,1483517611,0,0,0,0,0,0,-966,0,0
1484560611,0,0,0,0,0,0,12012,0,0,1484637611,0,0,0,0,0,0,-1003,0,0
1485680611,0,0,0,0,0,0,11992,0,0,1485757611,0,0,0,0,0,0,-954,0,0
1486800611,0,0,0,0,0,0,11953,0,0,1486877611,0,0,0,0,0,0,-936,0,0
1487920611,0,0,0,0,0,0,11938,0,0,1487997611,0,0,0,0,0,0,-965,0,0
1489040611,0,0,0,0,0,0,11992,0,0,1489117611,0,0,0,0,0,0,-1000,0,0
1490160611,0,0,0,0,0,0,12012,0,0,1490237611,0,0,0,0,0,0,-950,0,0
1491280611,0,0,0,0,0,0,11961,0,0,1491357611,0,0,0,0,0,0,-974,0,0
1492400611,0,0,0,0,0,0,437,0,0,1492477611,0,0,0,0,0,0,556,0,0
1493520611,0,0,0,0,0,0,472,0,0,1493597611,0,0,0,0,0,0,545,0,0
1494640611,0,0,0,0,0,0,448,0,0,1494717611,0,0,0,0,0,0,577,0,0
1495760611,0,0,0,0,0,0,503,0,0,1495837611,0,0,0,0,0,0,588,0,0
1496880611,0,0,0,0,0,0,429,0,0,1496957611,0,0,0,0,0,0,566,0,0
1498000611,0,0,0,0,0,0,477,0,0,1498077611,0,0,0,0,0,0,600,0,0
1499120611,0,0,0,0,0,0,498,0,0,1499197611,0,0,0,0,0,0,616,0,0
1500240611,0,0,0,0,0,0,475,0,0,1500317611,0,0,0,0,0,0,568,0,0
1501360611,0,0,0,0,0,0,11936,0,0,1501437611,0,0,0,0,0,0,-985,0,0
1502480611,0,0,0,0,0,0,11983,0,0,1502557611,0,0,0,0,0,0,-971,0,0
1503600611,0,0,0,0,0,0,11988,0,0,1503677611,0,0,0,0,0,0,-950,0,0
1504720611,0,0,0,0,0,0,11969,0,0,1504797611,0,0,0,0,0,0,-1022,0,0
1505840611,0,0,0,0,0,0,11943,0,0,1505917611,0,0,0,0,0,0,-969,0,0
1506960611,0,0,0,0,0,0,11992,0,0,1507037611,0,0,0,0,0,0,-981,0,0
1508080611,0,0,0,0,0,0,11983,0,0,1508157611,0,0,0,0,0,0,-959,0,0
1509200611,0,0,0,0,0,0,11945,0,0,1509277611,0,0,0,0,0,0,-939,0,0
1510320611,0,0,0,0,0,0,534,0,0,1510397611,0,0,0,0,0,0,559,0,0
1511440611,0,0,0,0,0,0,481,0,0,1511517611,0,0,0,0,0,0,537,0,0
1512560611,0,0,0,0,0,0,473,0,0,1512637611,0,0,0,0,0,0,580,0,0
1513680611,0,0,0,0,0,0,470,0,0,1513757611,0,0,0,0,0,0,550,0,0
1514800611,0,0,0,0,0,0,483,0,0,1514877611,0,0,0,0,0,0,596,0,0
1515920611,0,0,0,0,0,0,471,0,0,1515997611,0,0,0,0,0,0,595,0,0
1517040611,0,0,0,0,0,0,484,0,0,1517117611,0,0,0,0,0,0,574,0,0
1518160611,0,0,0,0,0,0,466,0,0,1518237611,0,0,0,0,0,0,572,0,0
1519280611,0,0,0,0,0,0,11875,0,0,1519357611,0,0,0,0,0,0,-964,0,0
1520400611,0,0,0,0,0,0,11970,0,0,1520477611,0,0,0,0,0,0,-956,0,0
1521520611,0,0,0,0,0,0,11987,0,0,1521597611,0,0,0,0,0,0,-972,0,0
1522640611,0,0,0,0,0,0,11989,0,0,1522717611,0,0,0,0,0,0,-950,0,0
1523760611,0,0,0,0,0,0,11968,0,0,1523837611,0,0,0,0,0,0,-961,0,0
1524880611,0,0,0,0,0,0,12003,0,0,1524957611,0,0,0,0,0,0,-971,0,0
1526000611,0,0,0,0,0,0,11972,0,0,1526077611,0,0,0,0,0,0,-997,0,0
1527120611,0,0,0,0,0,0,11954,0,0,1527197611,0,0,0,0,0,0,-951,0,0
1528240611,0,0,0,0,0,0,491,0,0,1528317611,0,0,0,0,0,0,548,0,0
1529360611,0,0,0,0,0,0,480,0,0,1529437611,0,0,0,0,0,0,563,0,0
1530480611,0,0,0,0,0,0,472,0,0,1530557611,0,0,0,0,0,0,566,0,0
1531600611,0,0,0,0,0,0,445,0,0,1531677611,0,0,0,0,0,0,571,0,0
1532720611,0,0,0,0,0,0,501,0,0,1532797611,0,0,0,0,0,0,570,0,0
1533840611,0,0,0,0,0,0,500,0,0,1533917611,0,0,0,0,0,0,580,0,0
1534960611,0,0,0,0,0,0,481,0,0,1535037611,0,0,0,0,0,0,576,0,0
1536080611,0,0,0,0,0,0,463,0,0,1536157611,0,0,0,0,0,0,618,0,0
1537200611,0,0,0,0,0,0,11907,0,0,1537277611,0,0,0,0,0,0,-960,0,0
1538320611,0,0,0,0,0,0,12047,0,0,1538397611,0,0,0,0,0,0,-963,0,0
1539440611,0,0,0,0,0,0,11955,0,0,1539517611,0,0,0,0,0,0,-985,0,0
1540560611,0,0,0,0,0,0,11959,0,0,1540637611,0,0,0,0,0,0,-943,0,0
1541680611,0,0,0,0,0,0,11976,0,0,1541757611,0,0,0,0,0,0,-967,0,0
1542800611,0,0,0,0,0,0,11962,0,0,1542877611,0,0,0,0,0,0,-942,0,0
1543920611,0,0,0,0,0,0,11992,0,0,1543997611,0,0,0,0,0,0,-972,0,0
1545040611,0,0,0,0,0,0,11957,0,0,1545117611,0,0,0,0,0,0,-950,0,0
1546160611,0,0,0,0,0,0,469,0,0,1546237611,0,0,0,0,0,0,604,0,0
1547280611,0,0,0,0,0,0,483,0,0,1547357611,0,0,0,0,0,0,555,0,0
1548400611,0,0,0,0,0,0,474,0,0,1548477611,0,0,0,0,0,0,580,0,0
1549520611,0,0,0,0,0,0,467,0,0,1549597611,0,0,0,0,0,0,628,0,0
1550640611,0,0,0,0,0,0,454,0,0,1550717611,0,0,0,0,0,0,628,0,0
1551760611,0,0,0,0,0,0,437,0,0,1551837611,0,0,0,0,0,0,558,0,0
1552880611,0,0,0,0,0,0,479,0,0,1552957611,0,0,0,0,0,0,574,0,0
1554000611,0,0,0,0,0,0,474,0,0,1554077611,0,0,0,0,0,0,575,0,0
1555120611,0,0,0,0,0,0,11842,0,0,1555197611,0,0,0,0,0,0,-985,0,0
1556240611,0,0,0,0,0,0,11982,0,0,1556317611,0,0,0,0,0,0,-997,0,0
1557360611,0,0,0,0,0,0,11991,0,0,1557437611,0,0,0,0,0,0,-957,0,0
1558480611,0,0,0,0,0,0,11991,0,0,1558557611,0,0,0,0,0,0,-930,0,0
1559600611,0,0,0,0,0,0,11957,0,0,1559677611,0,0,0,0,0,0,-970,0,0
1560720611,0,0,0,0,0,0,11931,0,0,1560797611,0,0,0,0,0,0,-924,0,0
1561840611,0,0,0,0,0,0,11974,0,0,1561917611,0,0,0,0,0,0,-955,0,0
1562960611,0,0,0,0,0,0,11990,0,0,1563037611,0,0,0,0,0,0,-923,0,0
1564080611,0,0,0,0,0,0,414,0,0,1564157611,0,0,0,0,0,0,567,0,0
1565200611,0,0,0,0,0,0,454,0,0,1565277611,0,0,0,0,0,0,585,0,0
1566320611,0,0,0,0,0,0,476,0,0,1566397611,0,0,0,0,0,0,567,0,0
1567440611,0,0,0,0,0,0,488,0,0,1567517611,0,0,0,0,0,0,617,0,0
1568560611,0,0,0,0,0,0,455,0,0,1568637611,0,0,0,0,0,0,599,0,0
1569680611,0,0,0,0,0,0,474,0,0,1569757611,0,0,0,0,0,0,541,0,0
1570800611,0,0,0,0,0,0,452,0,0,1570877611,0,0,0,0,0,0,575,0,0
1571920611,0,0,0,0,0,0,441,0,0,1571997611,0,0,0,0,0,0,634,0,0
1573040611,0,0,0,0,0,0,11664,0,0,1573117611,0,0,0,0,0,0,-950,0,0
1574160611,0,0,0,0,0,0,11938,0,0,1574237611,0,0,0,0,0,0,-1004,0,0
1575280611,0,0,0,0,0,0,11904,0,0,1575357611,0,0,0,0,0,0,-1008,0,0
1576400611,0,0,0,0,0,0,11959,0,0,1576477611,0,0,0,0,0,0,-951,0,0
1577520611,0,0,0,0,0,0,11940,0,0,1577597611,0,0,0,0,0,0,-951,0,0
1578640611,0,0,0,0,0,0,12005,0,0,1578717611,0,0,0,0,0,0,-967,0,0
1579760611,0,0,0,0,0,0,11975,0,0,1579837611,0,0,0,0,0,0,-927,0,0
1580880611,0,0,0,0,0,0,11955,0,0,1580957611,0,0,0,0,0,0,-994,0,0
1582000611,0,0,0,0,0,0,495,0,0,1582077611,0,0,0,0,0,0,601,0,0
1583120611,0,0,0,0,0,0,486,0,0,1583197611,0,0,0,0,0,0,618,0,0
1584240611,0,0,0,0,0,0,472,0,0,1584317611,0,0,0,0,0,0,599,0,0
1585360611,0,0,0,0,0,0,474,0,0,1585437611,0,0,0,0,0,0,560,0,0
1586480611,0,0,0,0,0,0,499,0,0,1586557611,0,0,0,0,0,0,561,0,0
1587600611,0,0,0,0,0,0,472,0,0,1587677611,0,0,0,0,0,0,599,0,0
1588720611,0,0,0,0,0,0,497,0,0,1588797611,0,0,0,0,0,0,553,0,0
1589840611,0,0,0,0,0,0,481,0,0,1589917611,0,0,0,0,0,0,596,0,0
1590960611,0,0,0,0,0,0,11455,0,0,1591037611,0,0,0,0,0,0,-959,0,0
1592080611,0,0,0,0,0,0,11976,0,0,1592157611,0,0,0,0,0,0,-985,0,0
1593200611,0,0,0,0,0,0,11936,0,0,1593277611,0,0,0,0,0,0,-978,0,0
1594320611,0,0,0,0,0,0,11979,0,0,1594397611,0,0,0,0,0,0,-977,0,0
1595440611,0,0,0,0,0,0,11944,0,0,1595517611,0,0,0,0,0,0,-977,0,0
1596560611,0,0,0,0,0,0,11925,0,0,1596637611,0,0,0,0,0,0,-992,0,0
1597680611,0,0,0,0,0,0,11969,0,0,1597757611,0,0,0,0,0,0,-990,0,0
1598800611,0,0,0,0,0,0,11967,0,0,1598877611,0,0,0,0,0,0,-961,0,0
1599920611,0,0,0,0,0,0,563,0,0,1599997611,0,0,0,0,0,0,600,0,0
1601040611,0,0,0,0,0,0,466,0,0,1601117611,0,0,0,0,0,0,565,0,0
1602160611,0,0,0,0,0,0,453,0,0,1602237611,0,0,0,0,0,0,555,0,0
1603280611,0,0,0,0,0,0,483,0,0,1603357611,0,0,0,0,0,0,578,0,0
1604400611,0,0,0,0,0,0,490,0,0,1604477611,0,0,0,0,0,0,570,0,0
1605520611,0,0,0,0,0,0,451,0,0,1605597611,0,0,0,0,0,0,595,0,0
1606640611,0,0,0,0,0,0,494,0,0,1606717611,0,0,0,0,0,0,568,0,0
1607760611,0,0,0,0,0,0,436,0,0,1607837611,0,0,0,0,0,0,570,0,0
1608880611,0,0,0,0,0,0,10962,0,0,1608957611,0,0,0,0,0,0,-888,0,0
1610000611,0,0,0,0,0,0,11953,0,0,1610077611,0,0,0,0,0,0,-982,0,0
1611120611,0,0,0,0,0,0,11957,0,0,1611197611,0,0,0,0,0,0,-945,0,0
1612240611,0,0,0,0,0,0,11989,0,0,1612317611,0,0,0,0,0,0,-941,0,0
1613360611,0,0,0,0,0,0,11899,0,0,1613437611,0,0,0,0,0,0,-989,0,0
1614480611,0,0,0,0,0,0,11996,0,0,1614557611,0,0,0,0,0,0,-966,0,0
1615600611,0,0,0,0,0,0,11910,0,0,1615677611,0,0,0,0,0,0,-939,0,0
1616720611,0,0,0,0,0,0,11958,0,0,1616797611,0,0,0,0,0,0,-947,0,0
1617840611,0,0,0,0,0,0,659,0,0,1617917611,0,0,0,0,0,0,559,0,0
1618960611,0,0,0,0,0,0,448,0,0,1619037611,0,0,0,0,0,0,584,0,0
1620080611,0,0,0,0,0,0,482,0,0,1620157611,0,0,0,0,0,0,542,0,0
1621200611,0,0,0,0,0,0,517,0,0,1621277611,0,0,0,0,0,0,591,0,0
1622320611,0,0,0,0,0,0,468,0,0,1622397611,0,0,0,0,0,0,566,0,0
1623440611,0,0,0,0,0,0,448,0,0,1623517611,0,0,0,0,0,0,560,0,0
1624560611,0,0,0,0,0,0,478,0,0,1624637611,0,0,0,0,0,0,557,0,0
1625680611,0,0,0,0,0,0,455,0,0,1625757611,0,0,0,0,0,0,548,0,0
1626800611,0,0,0,0,0,0,10056,0,0,1626877611,0,0,0,0,0,0,-905,0,0
1627920611,0,0,0,0,0,0,11954,0,0,1627997611,0,0,0,0,0,0,-929,0,0
1629040611,0,0,0,0,0,0,11997,0,0,1629117611,0,0,0,0,0,0,-893,0,0
1630160611,0,0,0,0,0,0,11946,0,0,1630237611,0,0,0,0,0,0,-926,0,0
1631280611,0,0,0,0,0,0,11961,0,0,1631357611,0,0,0,0,0,0,-940,0,0
1632400611,0,0,0,0,0,0,11958,0,0,1632477611,0,0,0,0,0,0,-964,0,0
1633520611,0,0,0,0,0,0,11951,0,0,1633597611,0,0,0,0,0,0,-986,0,0
1634640611,0,0,0,0,0,0,11934,0,0,1634717611,0,0,0,0,0,0,-937,0,0
1635760611,0,0,0,0,0,0,1278,0,0,1635837611,0,0,0,0,0,0,599,0,0
1636880611,0,0,0,0,0,0,480,0,0,1636957611,0,0,0,0,0,0,596,0,0
1638000611,0,0,0,0,0,0,473,0,0,1638077611,0,0,0,0,0,0,628,0,0
1639120611,0,0,0,0,0,0,491,0,0,1639197611,0,0,0,0,0,0,630,0,0
1640240611,0,0,0,0,0,0,459,0,0,1640317611,0,0,0,0,0,0,555,0,0
1641360611,0,0,0,0,0,0,480,0,0,1641437611,0,0,0,0,0,0,601,0,0
1642480611,0,0,0,0,0,0,462,0,0,1642557611,0,0,0,0,0,0,575,0,0
1643600611,0,0,0,0,0,0,434,0,0,1643677611,0,0,0,0,0,0,553,0,0
1644720611,0,0,0,0,0,0,8074,0,0,1644797611,0,0,0,0,0,0,-877,0,0
1645840611,0,0,0,0,0,0,11962,0,0,1645917611,0,0,0,0,0,0,-945,0,0
1646960611,0,0,0,0,0,0,11974,0,0,1647037611,0,0,0,0,0,0,-945,0,0
1648080611,0,0,0,0,0,0,11978,0,0,1648157611,0,0,0,0,0,0,-937,0,0
1649200611,0,0,0,0,0,0,11999,0,0,1649277611,0,0,0,0,0,0,-956,0,0
1650320611,0,0,0,0,0,0,11968,0,0,1650397611,0,0,0,0,0,0,-966,0,0
1651440611,0,0,0,0,0,0,11952,0,0,1651517611,0,0,0,0,0,0,-956,0,0
1652560611,0,0,0,0,0,0,11989,0,0,1652637611,0,0,0,0,0,0,-987,0,0
1653680611,0,0,0,0,0,0,4846,0,0,1653757611,0,0,0,0,0,0,544,0,0
1654800611,0,0,0,0,0,0,509,0,0,1654877611,0,0,0,0,0,0,550,0,0
1655920611,0,0,0,0,0,0,470,0,0,1655997611,0,0,0,0,0,0,563,0,0
1657040611,0,0,0,0,0,0,435,0,0,1657117611,0,0,0,0,0,0,561,0,0
1658160611,0,0,0,0,0,0,475,0,0,1658237611,0,0,0,0,0,0,603,0,0
1659280611,0,0,0,0,0,0,434,0,0,1659357611,0,0,0,0,0,0,568,0,0
1660400611,0,0,0,0,0,0,495,0,0,1660477611,0,0,0,0,0,0,550,0,0
1661520611,0,0,0,0,0,0,483,0,0,1661597611,0,0,0,0,0,0,577,0,0
1662640611,0,0,0,0,0,0,3567,0,0,1662717611,0,0,0,0,0,0,-785,0,0
1663760611,0,0,0,0,0,0,11968,0,0,1663837611,0,0,0,0,0,0,-947,0,0
1664880611,0,0,0,0,0,0,11927,0,0,1664957611,0,0,0,0,0,0,-958,0,0
1666000611,0,0,0,0,0,0,11954,0,0,1666077611,0,0,0,0,0,0,-968,0,0
1667120611,0,0,0,0,0,0,11962,0,0,1667197611,0,0,0,0,0,0,-967,0,0
1668240611,0,0,0,0,0,0,11960,0,0,1668317611,0,0,0,0,0,0,-940,0,0
1669360611,0,0,0,0,0,0,11975,0,0,1669437611,0,0,0,0,0,0,-964,0,0
1670480611,0,0,0,0,0,0,11991,0,0,1670557611,0,0,0,0,0,0,-956,0,0
1671600611,0,0,0,0,0,0,11948,0,0,1671677611,0,0,0,0,0,0,506,0,0
1672720611,0,0,0,0,0,0,505,0,0,1672797611,0,0,0,0,0,0,564,0,0
1673840611,0,0,0,0,0,0,480,0,0,1673917611,0,0,0,0,0,0,571,0,0
1674960611,0,0,0,0,0,0,460,0,0,1675037611,0,0,0,0,0,0,554,0,0
1676080611,0,0,0,0,0,0,486,0,0,1676157611,0,0,0,0,0,0,589,0,0
1677200611,0,0,0,0,0,0,477,0,0,1677277611,0,0,0,0,0,0,570,0,0
1678320611,0,0,0,0,0,0,496,0,0,1678397611,0,0,0,0,0,0,543,0,0
1679440611,0,0,0,0,0,0,524,0,0,1679517611,0,0,0,0,0,0,564,0,0
1680560611,0,0,0,0,0,0,479,0,0,1680637611,0,0,0,0,0,0,571,0,0
1681680611,0,0,0,0,0,0,473,0,0,1681757611,0,0,0,0,0,0,564,0,0
1682800611,0,0,0,0,0,0,474,0,0,1682877611,0,0,0,0,0,0,607,0,0
1683920611,0,0,0,0,0,0,461,0,0,1683997611,0,0,0,0,0,0,590,0,0
1685040611,0,0,0,0,0,0,519,0,0,1685117611,0,0,0,0,0,0,618,0,0
1686160611,0,0,0,0,0,0,456,0,0,1686237611,0,0,0,0,0,0,590,0,0
1687280611,0,0,0,0,0,0,478,0,0,1687357611,0,0,0,0,0,0,561,0,0
1688400611,0,0,0,0,0,0,497,0,0,1688477611,0,0,0,0,0,0,602,0,0
1689520611,0,0,0,0,0,0,490,0,0,1689597611,0,0,0,0,0,0,621,0,0
1690640611,0,0,0,0,0,0,425,0,0,1690717611,0,0,0,0,0,0,578,0,0
1691760611,0,0,0,0,0,0,488,0,0,1691837611,0,0,0,0,0,0,557,0,0
1692880611,0,0,0,0,0,0,443,0,0,1692957611,0,0,0,0,0,0,553,0,0
1694000611,0,0,0,0,0,0,504,0,0,1694077611,0,0,0,0,0,0,597,0,0
1695120611,0,0,0,0,0,0,460,0,0,1695197611,0,0,0,0,0,0,570,0,0
1696240611,0,0,0,0,0,0,484,0,0,1696317611,0,0,0,0,0,0,608,0,0
1697360611,0,0,0,0,0,0,492,0,0,1697437611,0,0,0,0,0,0,549,0,0
1698480611,0,0,0,0,0,0,486,0,0,1698557611,0,0,0,0,0,0,568,0,0
1699600611,0,0,0,0,0,0,493,0,0,1699677611,0,0,0,0,0,0,575,0,0
1700720611,0,0,0,0,0,0,505,0,0,1700797611,0,0,0,0,0,0,579,0,0
1701840611,0,0,0,0,0,0,424,0,0,1701917611,0,0,0,0,0,0,577,0,0
1702960611,0,0,0,0,0,0,483,0,0,1703037611,0,0,0,0,0,0,560,0,0
1704080611,0,0,0,0,0,0,529,0,0,1704157611,0,0,0,0,0,0,587,0,0
1705200611,0,0,0,0,0,0,469,0,0,1705277611,0,0,0,0,0,0,559,0,0
1706320611,0,0,0,0,0,0,505,0,0,1706397611,0,0,0,0,0,0,579,0,0
1707440611,0,0,0,0,0,0,493,0,0,1707517611,0,0,0,0,0,0,555,0,0
1708560611,0,0,0,0,0,0,433,0,0,1708637611,0,0,0,0,0,0,615,0,0
1709680611,0,0,0,0,0,0,466,0,0,1709757611,0,0,0,0,0,0,590,0,0
1710800611,0,0,0,0,0,0,522,0,0,1710877611,0,0,0,0,0,0,594,0,0
1711920611,0,0,0,0,0,0,504,0,0,1711997611,0,0,0,0,0,0,561,0,0
1713040611,0,0,0,0,0,0,463,0,0,1713117611,0,0,0,0,0,0,519,0,0
1714160611,0,0,0,0,0,0,482,0,0,1714237611,0,0,0,0,0,0,599,0,0
1715280611,0,0,0,0,0,0,526,0,0,1715357611,0,0,0,0,0,0,552,0,0
1716400611,0,0,0,0,0,0,482,0,0,1716477611,0,0,0,0,0,0,583,0,0
1717520611,0,0,0,0,0,0,453,0,0,1717597611,0,0,0,0,0,0,604,0,0
1718640611,0,0,0,0,0,0,508,0,0,1718717611,0,0,0,0,0,0,567,0,0
1719760611,0,0,0,0,0,0,462,0,0,1719837611,0,0,0,0,0,0,600,0,0
1720880611,0,0,0,0,0,0,467,0,0,1720957611,0,0,0,0,0,0,557,0,0
1722000611,0,0,0,0,0,0,500,0,0,1722077611,0,0,0,0,0,0,602,0,0
1723120611,0,0,0,0,0,0,503,0,0,1723197611,0,0,0,0,0,0,610,0,0
1724240611,0,0,0,0,0,0,488,0,0,1724317611,0,0,0,0,0,0,576,0,0
1725360611,0,0,0,0,0,0,463,0,0,1725437611,0,0,0,0,0,0,567,0,0
1726480611,0,0,0,0,0,0,487,0,0,1726557611,0,0,0,0,0,0,590,0,0
1727600611,0,0,0,0,0,0,476,0,0,1727677611,0,0,0,0,0,0,559,0,0
1728720611,0,0,0,0,0,0,456,0,0,1728797611,0,0,0,0,0,0,565,0,0
1729840611,0,0,0,0,0,0,503,0,0,1729917611,0,0,0,0,0,0,592,0,0
1730960611,0,0,0,0,0,0,477,0,0,1731037611,0,0,0,0,0,0,568,0,0
1732080611,0,0,0,0,0,0,493,0,0,1732157611,0,0,0,0,0,0,554,0,0
1733200611,0,0,0,0,0,0,516,0,0,1733277611,0,0,0,0,0,0,569,0,0
1734320611,0,0,0,0,0,0,489,0,0,1734397611,0,0,0,0,0,0,585,0,0
1735440611,0,0,0,0,0,0,499,0,0,1735517611,0,0,0,0,0,0,598,0,0
1736560611,0,0,0,0,0,0,491,0,0,1736637611,0,0,0,0,0,0,549,0,0
1737680611,0,0,0,0,0,0,458,0,0,1737757611,0,0,0,0,0,0,583,0,0
1738800611,0,0,0,0,0,0,505,0,0,1738877611,0,0,0,0,0,0,560,0,0
1739920611,0,0,0,0,0,0,443,0,0,1739997611,0,0,0,0,0,0,542,0,0
1741040611,0,0,0,0,0,0,427,0,0,1741117611,0,0,0,0,0,0,572,0,0
1742160611,0,0,0,0,0,0,457,0,0,1742237611,0,0,0,0,0,0,557,0,0
1743280611,0,0,0,0,0,0,505,0,0,1743357611,0,0,0,0,0,0,583,0,0
1744400611,0,0,0,0,0,0,466,0,0,1744477611,0,0,0,0,0,0,554,0,0
1745520611,0,0,0,0,0,0,497,0,0,1745597611,0,0,0,0,0,0,601,0,0
1746640611,0,0,0,0,0,0,486,0,0,1746717611,0,0,0,0,0,0,592,0,0
1747760611,0,0,0,0,0,0,459,0,0,1747837611,0,0,0,0,0,0,538,0,0
1748880611,0,0,0,0,0,0,519,0,0,1748957611,0,0,0,0,0,0,589,0,0
1750000611,0,0,0,0,0,0,477,0,0,1750077611,0,0,0,0,0,0,568,0,0
1751120611,0,0,0,0,0,0,462,0,0,1751197611,0,0,0,0,0,0,566,0,0
1752240611,0,0,0,0,0,0,473,0,0,1752317611,0,0,0,0,0,0,621,0,0
1753360611,0,0,0,0,0,0,478,0,0,1753437611,0,0,0,0,0,0,598,0,0
1754480611,0,0,0,0,0,0,457,0,0,1754557611,0,0,0,0,0,0,565,0,0
1755600611,0,0,0,0,0,0,492,0,0,1755677611,0,0,0,0,0,0,599,0,0
1756720611,0,0,0,0,0,0,484,0,0,1756797611,0,0,0,0,0,0,594,0,0
1757840611,0,0,0,0,0,0,509,0,0,1757917611,0,0,0,0,0,0,596,0,0
1758960611,0,0,0,0,0,0,510,0,0,1759037611,0,0,0,0,0,0,556,0,0
1760080611,0,0,0,0,0,0,466,0,0,1760157611,0,0,0,0,0,0,561,0,0
1761200611,0,0,0,0,0,0,488,0,0,1761277611,0,0,0,0,0,0,559,0,0
1762320611,0,0,0,0,0,0,450,0,0,1762397611,0,0,0,0,0,0,536,0,0
1763440611,0,0,0,0,0,0,492,0,0,1763517611,0,0,0,0,0,0,543,0,0
1764560611,0,0,0,0,0,0,459,0,0,1764637611,0,0,0,0,0,0,596,0,0
1765680611,0,0,0,0,0,0,491,0,0,1765757611,0,0,0,0,0,0,583,0,0
1766800611,0,0,0,0,0,0,484,0,0,1766877611,0,0,0,0,0,0,530,0,0
1767920611,0,0,0,0,0,0,450,0,0,1767997611,0,0,0,0,0,0,553,0,0
1769040611,0,0,0,0,0,0,448,0,0,1769117611,0,0,0,0,0,0,584,0,0
1770160611,0,0,0,0,0,0,488,0,0,1770237611,0,0,0,0,0,0,599,0,0
1771280611,0,0,0,0,0,0,453,0,0,1771357611,0,0,0,0,0,0,593,0,0
1772400611,0,0,0,0,0,0,495,0,0,1772477611,0,0,0,0,0,0,582,0,0
1773520611,0,0,0,0,0,0,451,0,0,1773597611,0,0,0,0,0,0,569,0,0
1774640611,0,0,0,0,0,0,455,0,0,1774717611,0,0,0,0,0,0,559,0,0
1775760611,0,0,0,0,0,0,465,0,0,1775837611,0,0,0,0,0,0,591,0,0
1776880611,0,0,0,0,0,0,489,0,0,1776957611,0,0,0,0,0,0,574,0,0
1778000611,0,0,0,0,0,0,477,0,0,1778077611,0,0,0,0,0,0,547,0,0
1779120611,0,0,0,0,0,0,454,0,0,1779197611,0,0,0,0,0,0,632,0,0
1780240611,0,0,0,0,0,0,461,0,0,1780317611,0,0,0,0,0,0,604,0,0
1781360611,0,0,0,0,0,0,468,0,0,1781437611,0,0,0,0,0,0,606,0,0
1782480611,0,0,0,0,0,0,445,0,0,1782557611,0,0,0,0,0,0,580,0,0
1783600611,0,0,0,0,0,0,425,0,0,1783677611,0,0,0,0,0,0,554,0,0
1784720611,0,0,0,0,0,0,503,0,0,1784797611,0,0,0,0,0,0,530,0,0
1785840611,0,0,0,0,0,0,481,0,0,1785917611,0,0,0,0,0,0,563,0,0
1786960611,0,0,0,0,0,0,480,0,0,1787037611,0,0,0,0,0,0,604,0,0
1788080611,0,0,0,0,0,0,489,0,0,1788157611,0,0,0,0,0,0,590,0,0
1789200611,0,0,0,0,0,0,469,0,0,1789277611,0,0,0,0,0,0,585,0,0
1790320611,0,0,0,0,0,0,472,0,0,1790397611,0,0,0,0,0,0,564,0,0
1791440611,0,0,0,0,0,0,458,0,0,1791517611,0,0,0,0,0,0,557,0,0
1792560611,0,0,0,0,0,0,478,0,0,1792637611,0,0,0,0,0,0,561,0,0
1793680611,0,0,0,0,0,0,445,0,0,1793757611,0,0,0,0,0,0,613,0,0
1794800611,0,0,0,0,0,0,6692,0,0,1794877611,0,0,0,0,0,0,-883,0,0
1795920611,0,0,0,0,0,0,11951,0,0,1795997611,0,0,0,0,0,0,-961,0,0
1797040611,0,0,0,0,0,0,11972,0,0,1797117611,0,0,0,0,0,0,-976,0,0
1798160611,0,0,0,0,0,0,12001,0,0,1798237611,0,0,0,0,0,0,-940,0,0
1799280611,0,0,0,0,0,0,11982,0,0,1799357611,0,0,0,0,0,0,-956,0,0
1800400611,0,0,0,0,0,0,11984,0,0,1800477611,0,0,0,0,0,0,-939,0,0
1801520611,0,0,0,0,0,0,11960,0,0,1801597611,0,0,0,0,0,0,-950,0,0
1802640611,0,0,0,0,0,0,11981,0,0,1802717611,0,0,0,0,0,0,-960,0,0
1803760611,0,0,0,0,0,0,4371,0,0,1803837611,0,0,0,0,0,0,507,0,0
1804880611,0,0,0,0,0,0,477,0,0,1804957611,0,0,0,0,0,0,602,0,0
1806000611,0,0,0,0,0,0,416,0,0,1806077611,0,0,0,0,0,0,562,0,0
1807120611,0,0,0,0,0,0,483,0,0,1807197611,0,0,0,0,0,0,594,0,0
1808240611,0,0,0,0,0,0,476,0,0,1808317611,0,0,0,0,0,0,564,0,0
1809360611,0,0,0,0,0,0,519,0,0,1809437611,0,0,0,0,0,0,559,0,0
1810480611,0,0,0,0,0,0,453,0,0,1810557611,0,0,0,0,0,0,572,0,0
1811600611,0,0,0,0,0,0,484,0,0,1811677611,0,0,0,0,0,0,595,0,0
1812720611,0,0,0,0,0,0,4207,0,0,1812797611,0,0,0,0,0,0,-807,0,0
1813840611,0,0,0,0,0,0,11996,0,0,1813917611,0,0,0,0,0,0,-1000,0,0
1814960611,0,0,0,0,0,0,11993,0,0,1815037611,0,0,0,0,0,0,-967,0,0
1816080611,0,0,0,0,0,0,11992,0,0,1816157611,0,0,0,0,0,0,-962,0,0
1817200611,0,0,0,0,0,0,11978,0,0,1817277611,0,0,0,0,0,0,-984,0,0
1818320611,0,0,0,0,0,0,12012,0,0,1818397611,0,0,0,0,0,0,-955,0,0
1819440611,0,0,0,0,0,0,11959,0,0,1819517611,0,0,0,0,0,0,-986,0,0
1820560611,0,0,0,0,0,0,11983,0,0,1820637611,0,0,0,0,0,0,-938,0,0
1821680611,0,0,0,0,0,0,11766,0,0,1821757611,0,0,0,0,0,0,530,0,0
1822800611,0,0,0,0,0,0,454,0,0,1822877611,0,0,0,0,0,0,562,0,0
1823920611,0,0,0,0,0,0,480,0,0,1823997611,0,0,0,0,0,0,617,0,0
1825040611,0,0,0,0,0,0,496,0,0,1825117611,0,0,0,0,0,0,578,0,0
1826160611,0,0,0,0,0,0,455,0,0,1826237611,0,0,0,0,0,0,594,0,0
1827280611,0,0,0,0,0,0,501,0,0,1827357611,0,0,0,0,0,0,618,0,0
1828400611,0,0,0,0,0,0,462,0,0,1828477611,0,0,0,0,0,0,567,0,0
1829520611,0,0,0,0,0,0,479,0,0,1829597611,0,0,0,0,0,0,565,0,0
1830640611,0,0,0,0,0,0,489,0,0,1830717611,0,0,0,0,0,0,-602,0,0
1831760611,0,0,0,0,0,0,11973,0,0,1831837611,0,0,0,0,0,0,-959,0,0
1832880611,0,0,0,0,0,0,11943,0,0,1832957611,0,0,0,0,0,0,-999,0,0
1834000611,0,0,0,0,0,0,11939,0,0,1834077611,0,0,0,0,0,0,-995,0,0
1835120611,0,0,0,0,0,0,12013,0,0,1835197611,0,0,0,0,0,0,-976,0,0
1836240611,0,0,0,0,0,0,11952,0,0,1836317611,0,0,0,0,0,0,-961,0,0
1837360611,0,0,0,0,0,0,11951,0,0,1837437611,0,0,0,0,0,0,-991,0,0
1838480611,0,0,0,0,0,0,11977,0,0,1838557611,0,0,0,0,0,0,-971,0,0
1839600611,0,0,0,0,0,0,11995,0,0,1839677611,0,0,0,0,0,0,365,0,0
1840720611,0,0,0,0,0,0,460,0,0,1840797611,0,0,0,0,0,0,579,0,0
1841840611,0,0,0,0,0,0,467,0,0,1841917611,0,0,0,0,0,0,558,0,0
1842960611,0,0,0,0,0,0,427,0,0,1843037611,0,0,0,0,0,0,569,0,0
1844080611,0,0,0,0,0,0,466,0,0,1844157611,0,0,0,0,0,0,601,0,0
1845200611,0,0,0,0,0,0,487,0,0,1845277611,0,0,0,0,0,0,595,0,0
1846320611,0,0,0,0,0,0,459,0,0,1846397611,0,0,0,0,0,0,598,0,0
1847440611,0,0,0,0,0,0,482,0,0,1847517611,0,0,0,0,0,0,601,0,0
1848560611,0,0,0,0,0,0,495,0,0,1848637611,0,0,0,0,0,0,-310,0,0
1849680611,0,0,0,0,0,0,11980,0,0,1849757611,0,0,0,0,0,0,-933,0,0
1850800611,0,0,0,0,0,0,11975,0,0,1850877611,0,0,0,0,0,0,-964,0,0
1851920611,0,0,0,0,0,0,11987,0,0,1851997611,0,0,0,0,0,0,-980,0,0
1853040611,0,0,0,0,0,0,12012,0,0,1853117611,0,0,0,0,0,0,-953,0,0
1854160611,0,0,0,0,0,0,12029,0,0,1854237611,0,0,0,0,0,0,-972,0,0
1855280611,0,0,0,0,0,0,11975,0,0,1855357611,0,0,0,0,0,0,-961,0,0
1856400611,0,0,0,0,0,0,12031,0,0,1856477611,0,0,0,0,0,0,-1004,0,0
1857520611,0,0,0,0,0,0,11983,0,0,1857597611,0,0,0,0,0,0,-259,0,0
1858640611,0,0,0,0,0,0,437,0,0,1858717611,0,0,0,0,0,0,574,0,0
1859760611,0,0,0,0,0,0,454,0,0,1859837611,0,0,0,0,0,0,616,0,0
1860880611,0,0,0,0,0,0,475,0,0,1860957611,0,0,0,0,0,0,539,0,0
1862000611,0,0,0,0,0,0,438,0,0,1862077611,0,0,0,0,0,0,558,0,0
1863120611,0,0,0,0,0,0,486,0,0,1863197611,0,0,0,0,0,0,629,0,0
1864240611,0,0,0,0,0,0,430,0,0,1864317611,0,0,0,0,0,0,567,0,0
1865360611,0,0,0,0,0,0,433,0,0,1865437611,0,0,0,0,0,0,584,0,0
1866480611,0,0,0,0,0,0,442,0,0,1866557611,0,0,0,0,0,0,417,0,0
1867600611,0,0,0,0,0,0,11982,0,0,1867677611,0,0,0,0,0,0,-1029,0,0
1868720611,0,0,0,0,0,0,11983,0,0,1868797611,0,0,0,0,0,0,-930,0,0
1869840611,0,0,0,0,0,0,11967,0,0,1869917611,0,0,0,0,0,0,-966,0,0
1870960611,0,0,0,0,0,0,11977,0,0,1871037611,0,0,0,0,0,0,-901,0,0
1872080611,0,0,0,0,0,0,12021,0,0,1872157611,0,0,0,0,0,0,-934,0,0
1873200611,0,0,0,0,0,0,11954,0,0,1873277611,0,0,0,0,0,0,-967,0,0
1874320611,0,0,0,0,0,0,11936,0,0,1874397611,0,0,0,0,0,0,-959,0,0
1875440611,0,0,0,0,0,0,11889,0,0,1875517611,0,0,0,0,0,0,-917,0,0
1876560611,0,0,0,0,0,0,418,0,0,1876637611,0,0,0,0,0,0,603,0,0
1877680611,0,0,0,0,0,0,440,0,0,1877757611,0,0,0,0,0,0,584,0,0
1878800611,0,0,0,0,0,0,479,0,0,1878877611,0,0,0,0,0,0,563,0,0
1879920611,0,0,0,0,0,0,483,0,0,1879997611,0,0,0,0,0,0,528,0,0
1881040611,0,0,0,0,0,0,465,0,0,1881117611,0,0,0,0,0,0,586,0,0
1882160611,0,0,0,0,0,0,491,0,0,1882237611,0,0,0,0,0,0,589,0,0
1883280611,0,0,0,0,0,0,447,0,0,1883357611,0,0,0,0,0,0,619,0,0
1884400611,0,0,0,0,0,0,470,0,0,1884477611,0,0,0,0,0,0,604,0,0
1885520611,0,0,0,0,0,0,11933,0,0,1885597611,0,0,0,0,0,0,-1004,0,0
1886640611,0,0,0,0,0,0,12005,0,0,1886717611,0,0,0,0,0,0,-1002,0,0
1887760611,0,0,0,0,0,0,12002,0,0,1887837611,0,0,0,0,0,0,-929,0,0
1888880611,0,0,0,0,0,0,11978,0,0,1888957611,0,0,0,0,0,0,-960,0,0
1890000611,0,0,0,0,0,0,11922,0,0,1890077611,0,0,0,0,0,0,-969,0,0
1891120611,0,0,0,0,0,0,11951,0,0,1891197611,0,0,0,0,0,0,-958,0,0
1892240611,0,0,0,0,0,0,12014,0,0,1892317611,0,0,0,0,0,0,-969,0,0
1893360611,0,0,0,0,0,0,11995,0,0,1893437611,0,0,0,0,0,0,-964,0,0
1894480611,0,0,0,0,0,0,502,0,0,1894557611,0,0,0,0,0,0,602,0,0
1895600611,0,0,0,0,0,0,477,0,0,1895677611,0,0,0,0,0,0,575,0,0
1896720611,0,0,0,0,0,0,473,0,0,1896797611,0,0,0,0,0,0,561,0,0
1897840611,0,0,0,0,0,0,461,0,0,1897917611,0,0,0,0,0,0,596,0,0
1898960611,0,0,0,0,0,0,471,0,0,1899037611,0,0,0,0,0,0,602,0,0
1900080611,0,0,0,0,0,0,509,0,0,1900157611,0,0,0,0,0,0,582,0,0
1901200611,0,0,0,0,0,0,506,0,0,1901277611,0,0,0,0,0,0,611,0,0
1902320611,0,0,0,0,0,0,471,0,0,1902397611,0,0,0,0,0,0,619,0,0
1903440611,0,0,0,0,0,0,11984,0,0,1903517611,0,0,0,0,0,0,-922,0,0
1904560611,0,0,0,0,0,0,11990,0,0,1904637611,0,0,0,0,0,0,-954,0,0
1905680611,0,0,0,0,0,0,12011,0,0,1905757611,0,0,0,0,0,0,-964,0,0
1906800611,0,0,0,0,0,0,11966,0,0,1906877611,0,0,0,0,0,0,-1002,0,0
1907920611,0,0,0,0,0,0,11963,0,0,1907997611,0,0,0,0,0,0,-948,0,0
1909040611,0,0,0,0,0,0,11963,0,0,1909117611,0,0,0,0,0,0,-993,0,0
1910160611,0,0,0,0,0,0,12052,0,0,1910237611,0,0,0,0,0,0,-970,0,0
1911280611,0,0,0,0,0,0,11959,0,0,1911357611,0,0,0,0,0,0,-1012,0,0
1912400611,0,0,0,0,0,0,450,0,0,1912477611,0,0,0,0,0,0,569,0,0
1913520611,0,0,0,0,0,0,493,0,0,1913597611,0,0,0,0,0,0,531,0,0
1914640611,0,0,0,0,0,0,454,0,0,1914717611,0,0,0,0,0,0,559,0,0
1915760611,0,0,0,0,0,0,475,0,0,1915837611,0,0,0,0,0,0,562,0,0
1916880611,0,0,0,0,0,0,503,0,0,1916957611,0,0,0,0,0,0,586,0,0
1918000611,0,0,0,0,0,0,517,0,0,1918077611,0,0,0,0,0,0,577,0,0
1919120611,0,0,0,0,0,0,467,0,0,1919197611,0,0,0,0,0,0,587,0,0
1920240611,0,0,0,0,0,0,447,0,0,1920317611,0,0,0,0,0,0,598,0,0
1921360611,0,0,0,0,0,0,11973,0,0,1921437611,0,0,0,0,0,0,-944,0,0
1922480611,0,0,0,0,0,0,11996,0,0,1922557611,0,0,0,0,0,0,-944,0,0
1923600611,0,0,0,0,0,0,11953,0,0,1923677611,0,0,0,0,0,0,-968,0,0
1924720611,0,0,0,0,0,0,11982,0,0,1924797611,0,0,0,0,0,0,-952,0,0
1925840611,0,0,0,0,0,0,11978,0,0,1925917611,0,0,0,0,0,0,-949,0,0
1926960611,0,0,0,0,0,0,11945,0,0,1927037611,0,0,0,0,0,0,-944,0,0
1928080611,0,0,0,0,0,0,11966,0,0,1928157611,0,0,0,0,0,0,-942,0,0
1929200611,0,0,0,0,0,0,11936,0,0,1929277611,0,0,0,0,0,0,-945,0,0
1930320611,0,0,0,0,0,0,509,0,0,1930397611,0,0,0,0,0,0,580,0,0
1931440611,0,0,0,0,0,0,472,0,0,1931517611,0,0,0,0,0,0,593,0,0
1932560611,0,0,0,0,0,0,479,0,0,1932637611,0,0,0,0,0,0,593,0,0
1933680611,0,0,0,0,0,0,532,0,0,1933757611,0,0,0,0,0,0,567,0,0
1934800611,0,0,0,0,0,0,477,0,0,1934877611,0,0,0,0,0,0,571,0,0
1935920611,0,0,0,0,0,0,512,0,0,1935997611,0,0,0,0,0,0,614,0,0
1937040611,0,0,0,0,0,0,445,0,0,1937117611,0,0,0,0,0,0,612,0,0
1938160611,0,0,0,0,0,0,503,0,0,1938237611,0,0,0,0,0,0,594,0,0
1939280611,0,0,0,0,0,0,11975,0,0,1939357611,0,0,0,0,0,0,-930,0,0
1940400611,0,0,0,0,0,0,11985,0,0,1940477611,0,0,0,0,0,0,-981,0,0
1941520611,0,0,0,0,0,0,11984,0,0,1941597611,0,0,0,0,0,0,-953,0,0
1942640611,0,0,0,0,0,0,11945,0,0,1942717611,0,0,0,0,0,0,-1006,0,0
1943760611,0,0,0,0,0,0,11956,0,0,1943837611,0,0,0,0,0,0,-963,0,0
1944880611,0,0,0,0,0,0,11948,0,0,1944957611,0,0,0,0,0,0,-918,0,0
1946000611,0,0,0,0,0,0,11961,0,0,1946077611,0,0,0,0,0,0,-964,0,0
1947120611,0,0,0,0,0,0,11946,0,0,1947197611,0,0,0,0,0,0,-962,0,0
1948240611,0,0,0,0,0,0,483,0,0,1948317611,0,0,0,0,0,0,562,0,0
1949360611,0,0,0,0,0,0,490,0,0,1949437611,0,0,0,0,0,0,571,0,0
1950480611,0,0,0,0,0,0,454,0,0,1950557611,0,0,0,0,0,0,630,0,0
1951600611,0,0,0,0,0,0,468,0,0,1951677611,0,0,0,0,0,0,568,0,0
1952720611,0,0,0,0,0,0,470,0,0,1952797611,0,0,0,0,0,0,577,0,0
1953840611,0,0,0,0,0,0,463,0,0,1953917611,0,0,0,0,0,0,538,0,0
1954960611,0,0,0,0,0,0,465,0,0,1955037611,0,0,0,0,0,0,529,0,0
1956080611,0,0,0,0,0,0,442,0,0,1956157611,0,0,0,0,0,0,573,0,0
1957200611,0,0,0,0,0,0,11987,0,0,1957277611,0,0,0,0,0,0,-983,0,0
1958320611,0,0,0,0,0,0,11975,0,0,1958397611,0,0,0,0,0,0,-928,0,0
1959440611,0,0,0,0,0,0,11967,0,0,1959517611,0,0,0,0,0,0,-940,0,0
1960560611,0,0,0,0,0,0,12003,0,0,1960637611,0,0,0,0,0,0,-1002,0,0
1961680611,0,0,0,0,0,0,11922,0,0,1961757611,0,0,0,0,0,0,-954,0,0
1962800611,0,0,0,0,0,0,11958,0,0,1962877611,0,0,0,0,0,0,-955,0,0
1963920611,0,0,0,0,0,0,11927,0,0,1963997611,0,0,0,0,0,0,-948,0,0
1965040611,0,0,0,0,0,0,11937,0,0,1965117611,0,0,0,0,0,0,-965,0,0
1966160611,0,0,0,0,0,0,504,0,0,1966237611,0,0,0,0,0,0,613,0,0
1967280611,0,0,0,0,0,0,480,0,0,1967357611,0,0,0,0,0,0,572,0,0
1968400611,0,0,0,0,0,0,504,0,0,1968477611,0,0,0,0,0,0,557,0,0
1969520611,0,0,0,0,0,0,463,0,0,1969597611,0,0,0,0,0,0,557,0,0
1970640611,0,0,0,0,0,0,483,0,0,1970717611,0,0,0,0,0,0,598,0,0
1971760611,0,0,0,0,0,0,464,0,0,1971837611,0,0,0,0,0,0,571,0,0
1972880611,0,0,0,0,0,0,456,0,0,1972957611,0,0,0,0,0,0,606,0,0
1974000611,0,0,0,0,0,0,484,0,0,1974077611,0,0,0,0,0,0,561,0,0
1975120611,0,0,0,0,0,0,11941,0,0,1975197611,0,0,0,0,0,0,-1000,0,0
1976240611,0,0,0,0,0,0,11977,0,0,1976317611,0,0,0,0,0,0,-992,0,0
1977360611,0,0,0,0,0,0,11967,0,0,1977437611,0,0,0,0,0,0,-1005,0,0
1978480611,0,0,0,0,0,0,11989,0,0,1978557611,0,0,0,0,0,0,-974,0,0
1979600611,0,0,0,0,0,0,11936,0,0,1979677611,0,0,0,0,0,0,-974,0,0
1980720611,0,0,0,0,0,0,11930,0,0,1980797611,0,0,0,0,0,0,-932,0,0
1981840611,0,0,0,0,0,0,11945,0,0,1981917611,0,0,0,0,0,0,-961,0,0
1982960611,0,0,0,0,0,0,11907,0,0,1983037611,0,0,0,0,0,0,-967,0,0
1984080611,0,0,0,0,0,0,498,0,0,1984157611,0,0,0,0,0,0,536,0,0
1985200611,0,0,0,0,0,0,417,0,0,1985277611,0,0,0,0,0,0,611,0,0
1986320611,0,0,0,0,0,0,482,0,0,1986397611,0,0,0,0,0,0,583,0,0
1987440611,0,0,0,0,0,0,449,0,0,1987517611,0,0,0,0,0,0,567,0,0
1988560611,0,0,0,0,0,0,490,0,0,1988637611,0,0,0,0,0,0,576,0,0
1989680611,0,0,0,0,0,0,473,0,0,1989757611,0,0,0,0,0,0,592,0,0
1990800611,0,0,0,0,0,0,474,0,0,1990877611,0,0,0,0,0,0,563,0,0
1991920611,0,0,0,0,0,0,466,0,0,1991997611,0,0,0,0,0,0,596,0,0
1993040611,0,0,0,0,0,0,11944,0,0,1993117611,0,0,0,0,0,0,-953,0,0
1994160611,0,0,0,0,0,0,11935,0,0,1994237611,0,0,0,0,0,0,-974,0,0
1995280611,0,0,0,0,0,0,11945,0,0,1995357611,0,0,0,0,0,0,-918,0,0
1996400611,0,0,0,0,0,0,11981,0,0,1996477611,0,0,0,0,0,0,-975,0,0
1997520611,0,0,0,0,0,0,11933,0,0,1997597611,0,0,0,0,0,0,-983,0,0
1998640611,0,0,0,0,0,0,11937,0,0,1998717611,0,0,0,0,0,0,-926,0,0
1999760611,0,0,0,0,0,0,11992,0,0,1999837611,0,0,0,0,0,0,-932,0,0
2000880611,0,0,0,0,0,0,11941,0,0,2000957611,0,0,0,0,0,0,-1001,0,0
2002000611,0,0,0,0,0,0,437,0,0,2002077611,0,0,0,0,0,0,566,0,0
2003120611,0,0,0,0,0,0,509,0,0,2003197611,0,0,0,0,0,0,586,0,0
2004240611,0,0,0,0,0,0,472,0,0,2004317611,0,0,0,0,0,0,618,0,0
2005360611,0,0,0,0,0,0,460,0,0,2005437611,0,0,0,0,0,0,562,0,0
2006480611,0,0,0,0,0,0,497,0,0,2006557611,0,0,0,0,0,0,552,0,0
2007600611,0,0,0,0,0,0,512,0,0,2007677611,0,0,0,0,0,0,555,0,0
2008720611,0,0,0,0,0,0,456,0,0,2008797611,0,0,0,0,0,0,590,0,0
2009840611,0,0,0,0,0,0,444,0,0,2009917611,0,0,0,0,0,0,588,0,0
2010960611,0,0,0,0,0,0,11946,0,0,2011037611,0,0,0,0,0,0,-935,0,0
2012080611,0,0,0,0,0,0,11982,0,0,2012157611,0,0,0,0,0,0,-958,0,0
2013200611,0,0,0,0,0,0,11921,0,0,2013277611,0,0,0,0,0,0,-968,0,0
2014320611,0,0,0,0,0,0,11987,0,0,2014397611,0,0,0,0,0,0,-927,0,0
2015440611,0,0,0,0,0,0,11996,0,0,2015517611,0,0,0,0,0,0,-976,0,0
2016560611,0,0,0,0,0,0,11977,0,0,2016637611,0,0,0,0,0,0,-969,0,0
2017680611,0,0,0,0,0,0,11928,0,0,2017757611,0,0,0,0,0,0,-960,0,0
2018800611,0,0,0,0,0,0,11983,0,0,2018877611,0,0,0,0,0,0,-957,0,0
2019920611,0,0,0,0,0,0,444,0,0,2019997611,0,0,0,0,0,0,579,0,0
2021040611,0,0,0,0,0,0,469,0,0,2021117611,0,0,0,0,0,0,557,0,0
2022160611,0,0,0,0,0,0,505,0,0,2022237611,0,0,0,0,0,0,573,0,0
2023280611,0,0,0,0,0,0,479,0,0,2023357611,0,0,0,0,0,0,584,0,0
2024400611,0,0,0,0,0,0,466,0,0,2024477611,0,0,0,0,0,0,577,0,0
2025520611,0,0,0,0,0,0,482,0,0,2025597611,0,0,0,0,0,0,564,0,0
2026640611,0,0,0,0,0,0,496,0,0,2026717611,0,0,0,0,0,0,615,0,0
2027760611,0,0,0,0,0,0,486,0,0,2027837611,0,0,0,0,0,0,603,0,0
2028880611,0,0,0,0,0,0,11931,0,0,2028957611,0,0,0,0,0,0,-950,0,0
2030000611,0,0,0,0,0,0,11938,0,0,2030077611,0,0,0,0,0,0,-1024,0,0
2031120611,0,0,0,0,0,0,11960,0,0,2031197611,0,0,0,0,0,0,-956,0,0
2032240611,0,0,0,0,0,0,11919,0,0,2032317611,0,0,0,0,0,0,-938,0,0
2033360611,0,0,0,0,0,0,11961,0,0,2033437611,0,0,0,0,0,0,-978,0,0
2034480611,0,0,0,0,0,0,11957,0,0,2034557611,0,0,0,0,0,0,-914,0,0
2035600611,0,0,0,0,0,0,11940,0,0,2035677611,0,0,0,0,0,0,-963,0,0
2036720611,0,0,0,0,0,0,11945,0,0,2036797611,0,0,0,0,0,0,-919,0,0
2037840611,0,0,0,0,0,0,407,0,0,2037917611,0,0,0,0,0,0,590,0,0
2038960611,0,0,0,0,0,0,410,0,0,2039037611,0,0,0,0,0,0,569,0,0
2040080611,0,0,0,0,0,0,462,0,0,2040157611,0,0,0,0,0,0,545,0,0
2041200611,0,0,0,0,0,0,470,0,0,2041277611,0,0,0,0,0,0,585,0,0
2042320611,0,0,0,0,0,0,437,0,0,2042397611,0,0,0,0,0,0,615,0,0
2043440611,0,0,0,0,0,0,463,0,0,2043517611,0,0,0,0,0,0,648,0,0
2044560611,0,0,0,0,0,0,458,0,0,2044637611,0,0,0,0,0,0,578,0,0
2045680611,0,0,0,0,0,0,516,0,0,2045757611,0,0,0,0,0,0,626,0,0
2046800611,0,0,0,0,0,0,12024,0,0,2046877611,0,0,0,0,0,0,-911,0,0
2047920611,0,0,0,0,0,0,11924,0,0,2047997611,0,0,0,0,0,0,-917,0,0
2049040611,0,0,0,0,0,0,11923,0,0,2049117611,0,0,0,0,0,0,-934,0,0
2050160611,0,0,0,0,0,0,11940,0,0,2050237611,0,0,0,0,0,0,-949,0,0
2051280611,0,0,0,0,0,0,11947,0,0,2051357611,0,0,0,0,0,0,-951,0,0
2052400611,0,0,0,0,0,0,11958,0,0,2052477611,0,0,0,0,0,0,-952,0,0
2053520611,0,0,0,0,0,0,11963,0,0,2053597611,0,0,0,0,0,0,-991,0,0
2054640611,0,0,0,0,0,0,11972,0,0,2054717611,0,0,0,0,0,0,-969,0,0
2055760611,0,0,0,0,0,0,458,0,0,2055837611,0,0,0,0,0,0,579,0,0
2056880611,0,0,0,0,0,0,507,0,0,2056957611,0,0,0,0,0,0,615,0,0
2058000611,0,0,0,0,0,0,467,0,0,2058077611,0,0,0,0,0,0,580,0,0
2059120611,0,0,0,0,0,0,490,0,0,2059197611,0,0,0,0,0,0,557,0,0
2060240611,0,0,0,0,0,0,493,0,0,2060317611,0,0,0,0,0,0,561,0,0
2061360611,0,0,0,0,0,0,479,0,0,2061437611,0,0,0,0,0,0,615,0,0
2062480611,0,0,0,0,0,0,454,0,0,2062557611,0,0,0,0,0,0,576,0,0
2063600611,0,0,0,0,0,0,433,0,0,2063677611,0,0,0,0,0,0,554,0,0
2064720611,0,0,0,0,0,0,11946,0,0,2064797611,0,0,0,0,0,0,-881,0,0
2065840611,0,0,0,0,0,0,11943,0,0,2065917611,0,0,0,0,0,0,-933,0,0
2066960611,0,0,0,0,0,0,11962,0,0,2067037611,0,0,0,0,0,0,-915,0,0
2068080611,0,0,0,0,0,0,11962,0,0,2068157611,0,0,0,0,0,0,-953,0,0
2069200611,0,0,0,0,0,0,11957,0,0,2069277611,0,0,0,0,0,0,-949,0,0
2070320611,0,0,0,0,0,0,11904,0,0,2070397611,0,0,0,0,0,0,-950,0,0
2071440611,0,0,0,0,0,0,11936,0,0,2071517611,0,0,0,0,0,0,-941,0,0
2072560611,0,0,0,0,0,0,11956,0,0,2072637611,0,0,0,0,0,0,-979,0,0
2073680611,0,0,0,0,0,0,480,0,0,2073757611,0,0,0,0,0,0,572,0,0
2074800611,0,0,0,0,0,0,444,0,0,2074877611,0,0,0,0,0,0,569,0,0
2075920611,0,0,0,0,0,0,493,0,0,2075997611,0,0,0,0,0,0,542,0,0
2077040611,0,0,0,0,0,0,467,0,0,2077117611,0,0,0,0,0,0,527,0,0
2078160611,0,0,0,0,0,0,460,0,0,2078237611,0,0,0,0,0,0,583,0,0
2079280611,0,0,0,0,0,0,534,0,0,2079357611,0,0,0,0,0,0,566,0,0
2080400611,0,0,0,0,0,0,480,0,0,2080477611,0,0,0,0,0,0,589,0,0
2081520611,0,0,0,0,0,0,487,0,0,2081597611,0,0,0,0,0,0,555,0,0
2082640611,0,0,0,0,0,0,11953,0,0,2082717611,0,0,0,0,0,0,-973,0,0
2083760611,0,0,0,0,0,0,11934,0,0,2083837611,0,0,0,0,0,0,-936,0,0
2084880611,0,0,0,0,0,0,11888,0,0,2084957611,0,0,0,0,0,0,-988,0,0
2086000611,0,0,0,0,0,0,11964,0,0,2086077611,0,0,0,0,0,0,-980,0,0
2087120611,0,0,0,0,0,0,11969,0,0,2087197611,0,0,0,0,0,0,-957,0,0
2088240611,0,0,0,0,0,0,11977,0,0,2088317611,0,0,0,0,0,0,-994,0,0
2089360611,0,0,0,0,0,0,11971,0,0,2089437611,0,0,0,0,0,0,-937,0,0
2090480611,0,0,0,0,0,0,11958,0,0,2090557611,0,0,0,0,0,0,-986,0,0
2091600611,0,0,0,0,0,0,482,0,0,2091677611,0,0,0,0,0,0,583,0,0
2092720611,0,0,0,0,0,0,468,0,0,2092797611,0,0,0,0,0,0,592,0,0
2093840611,0,0,0,0,0,0,465,0,0,2093917611,0,0,0,0,0,0,522,0,0
2094960611,0,0,0,0,0,0,454,0,0,2095037611,0,0,0,0,0,0,549,0,0
2096080611,0,0,0,0,0,0,455,0,0,2096157611,0,0,0,0,0,0,574,0,0
2097200611,0,0,0,0,0,0,445,0,0,2097277611,0,0,0,0,0,0,568,0,0
2098320611,0,0,0,0,0,0,501,0,0,2098397611,0,0,0,0,0,0,587,0,0
2099440611,0,0,0,0,0,0,440,0,0,2099517611,0,0,0,0,0,0,584,0,0
2100560611,0,0,0,0,0,0,11933,0,0,2100637611,0,0,0,0,0,0,-934,0,0
2101680611,0,0,0,0,0,0,11941,0,0,2101757611,0,0,0,0,0,0,-971,0,0
2102800611,0,0,0,0,0,0,11940,0,0,2102877611,0,0,0,0,0,0,-947,0,0
2103920611,0,0,0,0,0,0,11950,0,0,2103997611,0,0,0,0,0,0,-995,0,0
2105040611,0,0,0,0,0,0,11931,0,0,2105117611,0,0,0,0,0,0,-982,0,0
2106160611,0,0,0,0,0,0,11971,0,0,2106237611,0,0,0,0,0,0,-991,0,0
2107280611,0,0,0,0,0,0,11967,0,0,2107357611,0,0,0,0,0,0,-956,0,0
2108400611,0,0,0,0,0,0,11921,0,0,2108477611,0,0,0,0,0,0,-936,0,0
2109520611,0,0,0,0,0,0,433,0,0,2109597611,0,0,0,0,0,0,559,0,0
2110640611,0,0,0,0,0,0,459,0,0,2110717611,0,0,0,0,0,0,583,0,0
2111760611,0,0,0,0,0,0,470,0,0,2111837611,0,0,0,0,0,0,585,0,0
2112880611,0,0,0,0,0,0,480,0,0,2112957611,0,0,0,0,0,0,566,0,0
2114000611,0,0,0,0,0,0,481,0,0,2114077611,0,0,0,0,0,0,565,0,0
2115120611,0,0,0,0,0,0,504,0,0,2115197611,0,0,0,0,0,0,517,0,0
2116240611,0,0,0,0,0,0,509,0,0,2116317611,0,0,0,0,0,0,567,0,0
2117360611,0,0,0,0,0,0,459,0,0,2117437611,0,0,0,0,0,0,562,0,0
2118480611,0,0,0,0,0,0,11927,0,0,2118557611,0,0,0,0,0,0,-946,0,0
2119600611,0,0,0,0,0,0,11946,0,0,2119677611,0,0,0,0,0,0,-976,0,0
2120720611,0,0,0,0,0,0,11949,0,0,2120797611,0,0,0,0,0,0,-935,0,0
2121840611,0,0,0,0,0,0,11911,0,0,2121917611,0,0,0,0,0,0,-922,0,0
2122960611,0,0,0,0,0,0,11923,0,0,2123037611,0,0,0,0,0,0,-984,0,0
2124080611,0,0,0,0,0,0,11939,0,0,2124157611,0,0,0,0,0,0,-1005,0,0
2125200611,0,0,0,0,0,0,11953,0,0,2125277611,0,0,0,0,0,0,-942,0,0
2126320611,0,0,0,0,0,0,11918,0,0,2126397611,0,0,0,0,0,0,-940,0,0
2127440611,0,0,0,0,0,0,501,0,0,2127517611,0,0,0,0,0,0,586,0,0
2128560611,0,0,0,0,0,0,503,0,0,2128637611,0,0,0,0,0,0,576,0,0
2129680611,0,0,0,0,0,0,494,0,0,2129757611,0,0,0,0,0,0,591,0,0
2130800611,0,0,0,0,0,0,443,0,0,2130877611,0,0,0,0,0,0,559,0,0
2131920611,0,0,0,0,0,0,476,0,0,2131997611,0,0,0,0,0,0,608,0,0
2133040611,0,0,0,0,0,0,512,0,0,2133117611,0,0,0,0,0,0,551,0,0
2134160611,0,0,0,0,0,0,452,0,0,2134237611,0,0,0,0,0,0,603,0,0
2135280611,0,0,0,0,0,0,434,0,0,2135357611,0,0,0,0,0,0,519,0,0
2136400611,0,0,0,0,0,0,11949,0,0,2136477611,0,0,0,0,0,0,-953,0,0
2137520611,0,0,0,0,0,0,11948,0,0,2137597611,0,0,0,0,0,0,-968,0,0
2138640611,0,0,0,0,0,0,11926,0,0,2138717611,0,0,0,0,0,0,-1001,0,0
2139760611,0,0,0,0,0,0,11913,0,0,2139837611,0,0,0,0,0,0,-975,0,0
2140880611,0,0,0,0,0,0,11903,0,0,2140957611,0,0,0,0,0,0,-945,0,0
2142000611,0,0,0,0,0,0,11939,0,0,2142077611,0,0,0,0,0,0,-953,0,0
2143120611,0,0,0,0,0,0,11983,0,0,2143197611,0,0,0,0,0,0,-929,0,0
2144240611,0,0,0,0,0,0,11936,0,0,2144317611,0,0,0,0,0,0,-948,0,0
2145360611,0,0,0,0,0,0,483,0,0,2145437611,0,0,0,0,0,0,591,0,0
2146480611,0,0,0,0,0,0,476,0,0,2146557611,0,0,0,0,0,0,570,0,0
2147600611,0,0,0,0,0,0,448,0,0,2147677611,0,0,0,0,0,0,536,0,0
2148720611,0,0,0,0,0,0,517,0,0,2148797611,0,0,0,0,0,0,592,0,0
2149840611,0,0,0,0,0,0,450,0,0,2149917611,0,0,0,0,0,0,588,0,0
2150960611,0,0,0,0,0,0,489,0,0,2151037611,0,0,0,0,0,0,599,0,0
2152080611,0,0,0,0,0,0,504,0,0,2152157611,0,0,0,0,0,0,574,0,0
2153200611,0,0,0,0,0,0,522,0,0,2153277611,0,0,0,0,0,0,610,0,0
